Shimmer,Shimmer,Shimmer,Shimmer,Shimmer,Shimmer,Shimmer,Shimmer,Shimmer,Shimmer,Shimmer,Shimmer,Shimmer,Shimmer,Shimmer,Shimmer,Shimmer,Shimmer,Shimmer,Shimmer,Shimmer,Shimmer,Shimmer,Shimmer,Shimmer,Shimmer,Shimmer,Shimmer,Shimmer,Shimmer,Shimmer,Shimmer,
Timestamp,Timestamp,System Timestamp,Low Noise Accelerometer X,Low Noise Accelerometer X,Low Noise Accelerometer Y,Low Noise Accelerometer Y,Low Noise Accelerometer Z,Low Noise Accelerometer Z,Gyroscope X,Gyroscope X,Gyroscope Y,Gyroscope Y,Gyroscope Z,Gyroscope Z,VSenseBatt,VSenseBatt,External ADC A7,External ADC A7,External ADC A6,External ADC A6,External ADC A15,External ADC A15,Internal ADC A13,Internal ADC A13,Pressure,Pressure,Temperature,Temperature,GSR,GSR,GSR Conductance,
RAW,CAL,CAL,RAW,CAL,RAW,CAL,RAW,CAL,RAW,CAL,RAW,CAL,RAW,CAL,RAW,CAL,RAW,CAL,RAW,CAL,RAW,CAL,RAW,CAL,RAW,CAL,RAW,CAL,RAW,CAL,CAL,
no units,mSecs,mSecs,no units,m/(sec^2),no units,m/(sec^2),no units,m/(sec^2),no units,deg/sec,no units,deg/sec,no units,deg/sec,no units,mVolts,no units,mVolts,no units,mVolts,no units,mVolts,no units,mVolts,no units,kPa,no units,Celcius*,no units,kOhms,uSiemens,
14102016,113100713.439941,1711746168433.69,12021,-700.240963855422,60167,-120.168674698795,5382,-40.1807228915663,-15617,398.656488549618,-26112,238.427480916031,8959,-136.778625954198,-31739,-46225.0051282051,9225,6758.24175824176,64776,47454.945054945,46855,34326.0073260073,13320,9758.24175824176,3994.35546875,2.73158693397867,54642,162.477326662858,48136,284.671532846715,3.51282051282051,
14134784,113101713.439941,1711746169433.69,12277,-697.156626506024,59911,-123.253012048193,5638,-43.2650602409639,-15617,433.832061068702,-28416,238.427480916031,9471,-144.595419847328,-27899,-40632.3897435897,18697,13697.4358974359,17928,13134.0659340659,31496,23073.9926739927,13064,9570.69597069597,3994.35546875,2.26608412700662,52850,153.462921415624,48392,257.207461842849,3.88791208791209,
14167552,113102713.439941,1711746170433.69,12277,-700.240963855422,60167,-123.253012048193,5382,-40.1807228915663,-15617,363.480916030534,-23808,238.427480916031,8191,-125.053435114504,-29947,-43615.1179487179,18185,13322.3443223443,25096,18385.347985348,47112,34514.2857142857,12808,9383.15018315018,3994.35546875,2.06232715784034,52082,149.591446711184,48136,284.671532846715,3.51282051282051,
14200320,113103713.439941,1711746171433.69,12277,-694.072289156627,59655,-123.253012048193,5126,-37.0963855421687,-15617,383.022900763359,-25088,238.427480916031,9471,-144.595419847328,31237,45493.8871794872,4873,3569.96336996337,16649,12197.0695970696,27912,20448.3516483516,12552,9195.60439560439,3994.36328125,3.11869312744309,56178,170.184978228763,48392,257.207461842849,3.88791208791209,
14233088,113104713.439941,1711746172433.69,12533,-703.325301204819,60423,-126.33734939759,5382,-40.1807228915663,-15617,328.30534351145,-21504,238.427480916031,10751,-164.137404580153,-27899,-40632.3897435897,44809,32827.1062271062,19720,14446.8864468864,32520,23824.1758241758,13064,9570.69597069597,3994.36328125,1.8562039605257,51314,145.714599396085,48392,257.207461842849,3.88791208791209,
14265856,113105713.439941,1711746173433.69,12533,-703.325301204819,60423,-126.33734939759,5894,-46.3493975903614,-15617,383.022900763359,-25088,238.427480916031,7935,-121.145038167939,-31739,-46225.0051282051,22793,16698.1684981685,34312,25136.9963369963,54536,39953.1135531136,12807,9382.41758241758,3994.36328125,2.46736542426587,53618,157.329363533413,48392,257.207461842849,3.88791208791209,
14298624,113106713.439941,1711746174433.69,12789,-700.240963855422,60167,-129.421686746988,5638,-43.2650602409639,-15617,410.381679389313,-26880,238.427480916031,7167,-109.419847328244,-31483,-45852.1641025641,15369,11259.3406593407,23304,17072.5274725275,33544,24574.358974359,12552,9195.60439560439,3994.359375,3.79662450932363,58994,184.276857774788,48392,257.207461842849,3.88791208791209,
14331392,113107713.439941,1711746175433.69,12277,-700.240963855422,60167,-123.253012048193,5638,-43.2650602409639,-15617,394.748091603053,-25856,238.427480916031,9471,-144.595419847328,-31739,-46225.0051282051,9993,7320.87912087912,7432,5444.68864468864,60936,44641.7582417582,12295,9007.32600732601,3994.359375,1.57778395274879,50290,140.536465421763,48136,284.671532846715,3.51282051282051,
14364160,113108713.439941,1711746176433.69,12533,-706.409638554217,60679,-126.33734939759,5894,-46.3493975903614,-15617,351.75572519084,-23040,238.427480916031,8959,-136.778625954198,-31995,-46597.8461538461,8713,6383.15018315018,62216,45579.4871794872,37895,27761.9047619048,12552,9195.60439560439,3994.359375,2.33346628442219,53106,154.752278678203,48392,257.207461842849,3.88791208791209,
14396928,113109713.439941,1711746177433.69,11765,-703.325301204819,60423,-117.084337349398,5126,-37.0963855421687,-15617,414.290076335878,-27136,238.427480916031,9471,-144.595419847328,-28411,-41378.0717948718,16393,12009.5238095238,10504,7695.23809523809,6408,4694.50549450549,12296,9008.05860805861,3994.359375,2.26609828078563,52850,153.462921415624,48136,284.671532846715,3.51282051282051,
14429696,113110713.439941,1711746178433.69,12021,-703.325301204819,60423,-120.168674698795,5382,-40.1807228915663,-15617,375.206106870229,-24576,238.427480916031,10751,-164.137404580153,-28667,-41750.9128205128,18441,13509.8901098901,20488,15009.5238095238,27656,20260.8058608059,12296,9008.05860805861,3994.359375,2.46735120995759,53618,157.329363533413,48392,257.207461842849,3.88791208791209,
14462464,113111713.439941,1711746179433.69,12533,-709.493975903614,60935,-126.33734939759,5382,-40.1807228915663,-15617,351.75572519084,-23040,238.427480916031,11007,-168.045801526718,30725,44748.2051282051,3337,2444.68864468864,9993,7320.87912087912,3080,2256.41025641026,12296,9008.05860805861,3994.359375,2.19845205312616,52594,152.173005207607,48392,257.207461842849,3.88791208791209,
14495232,113112713.439941,1711746180433.69,12533,-703.325301204819,60423,-126.33734939759,5382,-40.1807228915663,-15617,398.656488549618,-26112,238.427480916031,9471,-144.595419847328,30213,44002.5230769231,24329,17823.4432234432,55305,40516.4835164835,45832,33576.5567765568,12296,9008.05860805861,3994.3515625,2.66596050423696,54386,161.19108498859,48392,257.207461842849,3.88791208791209,
14528000,113113713.439941,1711746181433.69,12277,-703.325301204819,60423,-123.253012048193,5126,-37.0963855421687,-15617,359.572519083969,-23552,238.427480916031,5631,-85.969465648855,-31483,-45852.1641025641,44553,32639.5604395604,33544,24574.358974359,56584,41453.4798534799,12551,9194.87179487179,3994.3515625,2.53383142819166,53874,158.617113885824,48392,257.207461842849,3.88791208791209,
14560768,113114713.439941,1711746182433.69,12789,-709.493975903614,60935,-129.421686746988,5894,-46.3493975903614,-15617,340.030534351145,-22272,238.427480916031,8959,-136.778625954198,-30715,-44733.641025641,24841,18198.5347985348,44040,32263.7362637363,9480,6945.05494505494,12296,9008.05860805861,3994.3515625,1.71745114766967,50802,143.126867745139,48392,257.207461842849,3.88791208791209,
14593536,113115713.439941,1711746183433.69,12021,-694.072289156627,59655,-120.168674698795,4614,-30.9277108433735,-15617,398.656488549618,-26112,238.427480916031,8191,-125.053435114504,-28155,-41005.2307692308,24073,17635.8974358974,47112,34514.2857142857,23304,17072.5274725275,13320,9758.24175824176,3994.35546875,2.26608412700662,52850,153.462921415624,48136,284.671532846715,3.51282051282051,
14626304,113116713.439941,1711746184433.69,11765,-697.156626506024,59911,-117.084337349398,4614,-30.9277108433735,-15617,394.748091603053,-25856,238.427480916031,11263,-171.954198473282,-27643,-40259.5487179487,24073,17635.8974358974,48392,35452.0146520147,32264,23636.63003663,12808,9383.15018315018,3994.35546875,2.06232715784034,52082,149.591446711184,48392,257.207461842849,3.88791208791209,
14659072,113117713.439941,1711746185433.69,12533,-700.240963855422,60167,-126.33734939759,5126,-37.0963855421687,-15617,441.648854961832,-28928,238.427480916031,12543,-191.496183206107,-28155,-41005.2307692308,23561,17260.8058608059,47112,34514.2857142857,28936,21198.5347985348,13064,9570.69597069597,3994.35546875,2.53384566221481,53874,158.617113885824,48136,284.671532846715,3.51282051282051,
14691840,113118713.439941,1711746186433.69,12277,-709.493975903614,60935,-123.253012048193,5382,-40.1807228915663,-15617,383.022900763359,-25088,238.427480916031,12287,-187.587786259542,-27387,-39886.7076923077,25353,18573.6263736264,51976,38077.6556776557,45320,33201.4652014652,13576,9945.78754578755,3994.359375,3.37014374801885,57202,175.314737869875,48392,257.207461842849,3.88791208791209,
14724608,113119713.439941,1711746187433.69,12277,-706.409638554217,60679,-123.253012048193,5894,-46.3493975903614,-15617,367.389312977099,-24064,238.427480916031,5119,-78.1526717557252,-28155,-41005.2307692308,24073,17635.8974358974,50440,36952.3809523809,44040,32263.7362637363,13576,9945.78754578755,3994.359375,2.46735120995759,53618,157.329363533413,48392,257.207461842849,3.88791208791209,
14757376,113120713.439941,1711746188433.69,12789,-709.493975903614,60935,-129.421686746988,6662,-55.6024096385542,-15617,289.221374045801,-18944,238.427480916031,5375,-82.0610687022901,-27387,-39886.7076923077,25609,18761.1721611722,51976,38077.6556776557,49160,36014.652014652,14088,10320.8791208791,3994.359375,0.793232656550929,47474,126.235456531231,48392,257.207461842849,3.88791208791209,
14790144,113121713.439941,1711746189433.69,12533,-700.240963855422,60167,-126.33734939759,6662,-55.6024096385542,-15617,332.213740458015,-21760,238.427480916031,3839,-58.6106870229008,-31739,-46225.0051282051,14601,10696.7032967033,29960,21948.7179487179,65032,47642.4908424908,13832,10133.3333333333,3994.36328125,1.00978978326691,48242,130.145505307395,48392,257.207461842849,3.88791208791209,
14822912,113122713.439941,1711746190433.69,12533,-687.903614457831,59143,-126.33734939759,5894,-46.3493975903614,-15617,308.763358778626,-20224,238.427480916031,7167,-109.419847328244,-30971,-45106.482051282,13065,9571.42857142857,17928,13134.0659340659,36104,26449.8168498168,14344,10508.4249084249,3994.36328125,1.8562039605257,51314,145.714599396085,48136,284.671532846715,3.51282051282051,
14855680,113123713.439941,1711746191433.69,12021,-694.072289156627,59655,-120.168674698795,5638,-43.2650602409639,-15617,398.656488549618,-26112,238.427480916031,11263,-171.954198473282,-27643,-40259.5487179487,18953,13884.9816849817,25864,18947.9853479853,50696,37139.9267399267,14856,10883.5164835165,3994.36328125,2.26611243456467,52850,153.462921415624,48392,257.207461842849,3.88791208791209,
14888448,113124713.439941,1711746192433.69,12277,-697.156626506024,59911,-123.253012048193,5126,-37.0963855421687,-15617,429.923664122137,-28160,238.427480916031,16383,-250.12213740458,-27899,-40632.3897435897,23305,17073.2600732601,39176,28700.3663003663,9480,6945.05494505494,15368,11258.6080586081,3994.359375,2.79690626329059,54898,163.763085894523,48136,284.671532846715,3.51282051282051,
14921216,113125713.439941,1711746193433.69,12533,-690.987951807229,59399,-126.33734939759,4102,-24.7590361445783,-15617,480.732824427481,-31488,238.427480916031,18431,-281.389312977099,-27643,-40259.5487179487,23817,17448.3516483516,44808,32826.3736263736,18952,13884.2490842491,15368,11258.6080586081,3994.359375,2.86190000317256,55154,165.048372449227,48392,257.207461842849,3.88791208791209,
14953984,113126713.439941,1711746194433.69,12789,-703.325301204819,60423,-129.421686746988,4614,-30.9277108433735,-15617,367.389312977099,-24064,238.427480916031,10495,-160.229007633588,30725,44748.2051282051,5641,4132.60073260073,25609,18761.1721611722,44296,32451.2820512821,14856,10883.5164835165,3994.359375,2.79690626329059,54898,163.763085894523,48392,257.207461842849,3.88791208791209,
14986752,113127713.439941,1711746195433.69,13557,-709.493975903614,60935,-138.674698795181,5126,-37.0963855421687,-15617,328.30534351145,-21504,238.427480916031,8447,-128.961832061069,30725,44748.2051282051,25353,18573.6263736264,63753,46705.4945054945,14088,10320.8791208791,14857,10884.2490842491,3994.359375,2.06234124904843,52082,149.591446711184,48392,257.207461842849,3.88791208791209,
15019520,113128713.439941,1711746196433.69,12533,-700.240963855422,60167,-126.33734939759,5638,-43.2650602409639,-15617,269.679389312977,-17664,238.427480916031,2047,-31.2519083969466,-27387,-39886.7076923077,55049,40328.9377289377,62216,45579.4871794872,19976,14634.4322344322,15113,11071.7948717949,3994.359375,2.13053168624571,52338,150.882517832861,48136,284.671532846715,3.51282051282051,
15052288,113129713.439941,1711746197433.69,12277,-694.072289156627,59655,-123.253012048193,6406,-52.5180722891566,-15617,265.786259541985,-17409,238.427480916031,-513,7.83206106870229,-31739,-46225.0051282051,21257,15572.8937728938,39944,29263.0036630037,4104,3006.59340659341,14856,10883.5164835165,3994.359375,1.36646367265488,49522,136.645576685202,48392,257.207461842849,3.88791208791209,
15085056,113130713.439941,1711746198433.69,12277,-700.240963855422,60167,-123.253012048193,6662,-55.6024096385542,-15617,359.587786259542,-23553,238.427480916031,-769,11.7404580152672,-30971,-45106.482051282,16393,12009.5238095238,28168,20635.8974358974,48648,35639.5604395604,15112,11071.0622710623,3994.3515625,2.26606997322762,52850,153.462921415624,48136,284.671532846715,3.51282051282051,
15150592,113644713.439941,1711746712433.69,11765,-700.240963855422,60167,-117.084337349398,5126,-37.0963855421687,-15617,461.190839694656,-30208,238.427480916031,10239,-156.320610687023,-27643,-40259.5487179487,22537,16510.6227106227,38408,28137.7289377289,12040,8820.51282051282,14344,10508.4249084249,3994.3515625,2.66596050423696,54386,161.19108498859,48136,284.671532846715,3.51282051282051,
15183360,113645713.439941,1711746713433.69,12533,-703.325301204819,60423,-126.33734939759,5126,-37.0963855421687,-15617,418.198473282443,-27392,238.427480916031,14847,-226.671755725191,-27899,-40632.3897435897,24585,18010.989010989,44808,32826.3736263736,19464,14259.3406593407,14600,10695.9706959707,3994.35546875,2.73158693397867,54642,162.477326662858,48392,257.207461842849,3.88791208791209,
15216128,113646713.439941,1711746714433.69,12789,-706.409638554217,60679,-129.421686746988,4870,-34.0120481927711,-15617,394.748091603053,-25856,238.427480916031,19711,-300.931297709924,-27131,-39513.8666666667,26377,19323.8095238095,53256,39015.3846153846,44040,32263.7362637363,14600,10695.9706959707,3994.35546875,2.53384566221481,53874,158.617113885824,48136,284.671532846715,3.51282051282051,
15248896,113647713.439941,1711746715433.69,13301,-697.156626506024,59911,-135.590361445783,5382,-40.1807228915663,-15617,261.862595419847,-17152,238.427480916031,16639,-254.030534351145,30725,44748.2051282051,6665,4882.78388278388,31753,23262.2710622711,1032,756.043956043956,14345,10509.1575091575,3994.35546875,1.7869455278715,51058,144.421059829358,48392,257.207461842849,3.88791208791209,
15281664,113648713.439941,1711746716433.69,13045,-694.072289156627,59655,-132.506024096386,5638,-43.2650602409639,-15617,265.770992366412,-17408,238.427480916031,13055,-199.312977099237,-25339,-36903.9794871795,50697,37140.6593406593,38920,28512.8205128205,11272,8257.87545787546,14856,10883.5164835165,3994.34375,0.42835728848814,46194,119.700116936837,48392,257.207461842849,3.88791208791209,
15314432,113649713.439941,1711746717433.69,13045,-694.072289156627,59655,-132.506024096386,5894,-46.3493975903614,-15617,340.030534351145,-22272,238.427480916031,12031,-183.679389312977,-29947,-43615.1179487179,31753,23262.2710622711,59400,43516.4835164835,58632,42953.8461538461,13832,10133.3333333333,3994.34375,1.64769677441823,50546,141.832008109172,48392,257.207461842849,3.88791208791209,
15347200,113650713.439941,1711746718433.69,13045,-694.072289156627,59655,-132.506024096386,5894,-46.3493975903614,-15617,422.106870229008,-27648,238.427480916031,6143,-93.7862595419847,-31739,-46225.0051282051,17417,12759.706959707,38408,28137.7289377289,8712,6382.41758241758,13576,9945.78754578755,3994.34375,2.66593195873557,54386,161.19108498859,48392,257.207461842849,3.88791208791209,
15379968,113651713.439941,1711746719433.69,12533,-703.325301204819,60423,-126.33734939759,5638,-43.2650602409639,-15617,453.374045801527,-29696,238.427480916031,2047,-31.2519083969466,-28411,-41378.0717948718,19977,14635.1648351648,36360,26637.3626373626,55304,40515.7509157509,12295,9007.32600732601,3994.36328125,2.60008814368544,54130,159.904350835199,48136,284.671532846715,3.51282051282051,
15445504,114165713.439941,1711747233433.69,11765,-703.325301204819,60423,-117.084337349398,4614,-30.9277108433735,-15617,429.93893129771,-28161,238.427480916031,-1,0.0152671755725191,-27131,-39513.8666666667,25865,18948.7179487179,50952,37327.4725274725,37896,27762.6373626374,13320,9758.24175824176,3994.36328125,3.55511020664718,57970,179.157875241095,48136,284.671532846715,3.51282051282051,
15478272,114166713.439941,1711747234433.69,11253,-709.493975903614,60935,-110.915662650602,5126,-37.0963855421687,-15617,414.290076335878,-27136,238.427480916031,511,-7.80152671755725,31237,45493.8871794872,8201,6008.05860805861,33801,24762.6373626374,53000,38827.8388278388,12039,8819.78021978022,3994.3671875,2.86192866129644,55154,165.048372449227,48392,257.207461842849,3.88791208791209,
15511040,114167713.439941,1711747235433.69,11509,-703.325301204819,60423,-114,4870,-34.0120481927711,-15617,351.75572519084,-23040,238.427480916031,7935,-121.145038167939,-27899,-40632.3897435897,46089,33764.8351648352,27912,20448.3516483516,44296,32451.2820512821,12040,8820.51282051282,3994.3671875,1.85621798716674,51314,145.714599396085,48136,284.671532846715,3.51282051282051,
15543808,114168713.439941,1711747236433.69,12021,-700.240963855422,60167,-120.168674698795,5638,-43.2650602409639,-15617,304.854961832061,-19968,238.427480916031,13823,-211.038167938931,-27899,-40632.3897435897,34569,25325.2747252747,64520,47267.3992673993,53255,39014.652014652,12552,9195.60439560439,3994.3671875,0.501778859505768,46450,121.009157972248,48392,257.207461842849,3.88791208791209,
15576576,114169713.439941,1711747237433.69,12533,-700.240963855422,60167,-126.33734939759,5638,-43.2650602409639,-15617,238.412213740458,-15616,238.427480916031,18175,-277.480916030534,-30971,-45106.482051282,21513,15760.4395604396,22024,16134.7985347985,44552,32638.8278388278,11528,8445.42124542124,3994.35546875,0.207300085710554,45426,115.766644788036,48136,284.671532846715,3.51282051282051,
15609344,114170713.439941,1711747238433.69,13301,-697.156626506024,59911,-135.590361445783,6150,-49.433734939759,-15617,328.30534351145,-21504,238.427480916031,18687,-285.297709923664,-31483,-45852.1641025641,14857,10884.2490842491,17672,12946.5201465201,30472,22323.8095238095,11528,8445.42124542124,3994.35546875,0.501738136621316,46450,121.009157972248,48392,257.207461842849,3.88791208791209,
15642112,114171713.439941,1711747239433.69,13045,-697.156626506024,59911,-132.506024096386,6406,-52.5180722891566,-15617,402.564885496183,-26368,238.427480916031,17919,-273.572519083969,-29435,-42869.4358974359,16649,12197.0695970696,20744,15197.0695970696,35848,26262.2710622711,11272,8257.87545787546,3994.35546875,2.40053777048249,53362,156.041088870443,48136,284.671532846715,3.51282051282051,
15674880,114172713.439941,1711747240433.69,13045,-697.156626506024,59911,-132.506024096386,5638,-43.2650602409639,-15617,457.282442748092,-29952,238.427480916031,14079,-214.946564885496,-27643,-40259.5487179487,20745,15197.8021978022,30984,22698.9010989011,64264,47079.8534798535,11272,8257.87545787546,3994.359375,2.46735120995759,53618,157.329363533413,48392,257.207461842849,3.88791208791209,
15740416,114686713.439941,1711747754433.69,12277,-706.409638554217,60679,-123.253012048193,5126,-37.0963855421687,-15617,472.916030534351,-30976,238.427480916031,255,-3.89312977099237,-27899,-40632.3897435897,21001,15385.347985348,30728,22511.3553113553,63240,46329.6703296703,11016,8070.32967032967,3994.359375,5.01039603762382,64626,212.341655833175,48392,257.207461842849,3.88791208791209,
15773184,114687713.439941,1711747755433.69,12021,-709.493975903614,60935,-120.168674698795,5126,-37.0963855421687,-15617,418.213740458015,-27393,238.427480916031,-4097,62.5496183206107,-27387,-39886.7076923077,24329,17823.4432234432,43272,31701.0989010989,25864,18947.9853479853,11784,8632.96703296703,3994.36328125,3.73681274720899,58738,182.997648740313,48392,257.207461842849,3.88791208791209,
15805952,114688713.439941,1711747756433.69,11253,-703.325301204819,60423,-110.915662650602,5382,-40.1807228915663,-15617,336.137404580153,-22017,238.427480916031,-5121,78.1832061068702,-27643,-40259.5487179487,24329,17823.4432234432,48392,35452.0146520147,33032,24199.2673992674,12296,9008.05860805861,3994.36328125,2.53387413026117,53874,158.617113885824,48392,257.207461842849,3.88791208791209,
15838720,114689713.439941,1711747757433.69,11253,-697.156626506024,59911,-110.915662650602,5382,-40.1807228915663,-15617,312.671755725191,-20480,238.427480916031,767,-11.7099236641221,-30971,-45106.482051282,17673,12947.2527472527,35592,26074.7252747253,60168,44079.1208791209,12039,8819.78021978022,3994.36328125,2.60008814368544,54130,159.904350835199,48392,257.207461842849,3.88791208791209,
15871488,114690713.439941,1711747758433.69,11765,-694.072289156627,59655,-117.084337349398,5382,-40.1807228915663,-15617,367.389312977099,-24064,238.427480916031,9983,-152.412213740458,-31995,-46597.8461538461,12297,9008.79120879121,16392,12008.7912087912,13320,9758.24175824176,12552,9195.60439560439,3994.3515625,0.647847454779057,46962,123.624229429908,48392,257.207461842849,3.88791208791209,
15904256,114691713.439941,1711747759433.69,12533,-700.240963855422,60167,-126.33734939759,5382,-40.1807228915663,-15617,328.30534351145,-21504,238.427480916031,18431,-281.389312977099,-27643,-40259.5487179487,18441,13509.8901098901,23304,17072.5274725275,39432,28887.9120879121,12552,9195.60439560439,3994.3515625,1.08151740856997,48498,131.447132656106,48392,257.207461842849,3.88791208791209,
15937024,114692713.439941,1711747760433.69,12533,-703.325301204819,60423,-126.33734939759,4870,-34.0120481927711,-15617,371.297709923664,-24320,238.427480916031,27903,-426,-27899,-40632.3897435897,23049,16885.7142857143,36616,26824.9084249084,65032,47642.4908424908,13063,9569.96336996337,3994.3515625,2.06231306663226,52082,149.591446711184,48392,257.207461842849,3.88791208791209,
15969792,114693713.439941,1711747761433.69,13045,-703.325301204819,60423,-132.506024096386,5382,-40.1807228915663,-15617,375.206106870229,-24576,238.427480916031,23039,-351.740458015267,-31483,-45852.1641025641,15113,11071.7948717949,25352,18572.8937728938,41224,30200.7326007326,12808,9383.15018315018,3994.359375,2.66598904973842,54386,161.19108498859,48392,257.207461842849,3.88791208791209,
16002560,114694713.439941,1711747762433.69,13301,-703.325301204819,60423,-135.590361445783,5382,-40.1807228915663,-15617,332.213740458015,-21760,238.427480916031,14847,-226.671755725191,31237,45493.8871794872,3337,2444.68864468864,12041,8821.24542124542,13320,9758.24175824176,12296,9008.05860805861,3994.359375,1.50757701092152,50034,139.240223699633,48136,284.671532846715,3.51282051282051,
16035328,114695713.439941,1711747763433.69,13045,-706.409638554217,60679,-132.506024096386,5638,-43.2650602409639,-15617,359.572519083969,-23552,238.427480916031,7679,-117.236641221374,-27643,-40259.5487179487,42761,31326.7399267399,12552,9195.60439560439,7176,5257.14285714286,12552,9195.60439560439,3994.359375,2.33346628442219,53106,154.752278678203,48392,257.207461842849,3.88791208791209,
16100864,115209713.439941,1711748277433.69,12277,-700.240963855422,60167,-123.253012048193,5638,-43.2650602409639,-15617,351.770992366412,-23041,238.427480916031,-2049,31.2824427480916,-31739,-46225.0051282051,17929,13134.7985347985,11784,8632.96703296703,6920,5069.59706959707,12808,9383.15018315018,3994.35546875,3.24507763819126,56690,172.750680519605,48392,257.207461842849,3.88791208791209,
16133632,115210713.439941,1711748278433.69,12277,-697.156626506024,59911,-123.253012048193,5894,-46.3493975903614,-15617,418.198473282443,-27392,238.427480916031,511,-7.80152671755725,-31483,-45852.1641025641,13065,9571.42857142857,10248,7507.69230769231,62216,45579.4871794872,12807,9382.41758241758,3994.35546875,3.37012927954345,57202,175.314737869875,48136,284.671532846715,3.51282051282051,
16166400,115211713.439941,1711748279433.69,12021,-697.156626506024,59911,-120.168674698795,5382,-40.1807228915663,-15617,457.282442748092,-29952,238.427480916031,2815,-42.9770992366412,-29691,-43242.2769230769,14089,10321.6117216117,12296,9008.05860805861,776,568.498168498168,13832,10133.3333333333,3994.359375,3.11867872669048,56178,170.184978228763,48392,257.207461842849,3.88791208791209,
16199168,115212713.439941,1711748280433.69,12021,-703.325301204819,60423,-120.168674698795,5126,-37.0963855421687,-15617,379.114503816794,-24832,238.427480916031,12543,-191.496183206107,-27899,-40632.3897435897,21001,15385.347985348,27656,20260.8058608059,45576,33389.010989011,12552,9195.60439560439,3994.359375,2.33346628442219,53106,154.752278678203,48136,284.671532846715,3.51282051282051,
16231936,115213713.439941,1711748281433.69,12277,-700.240963855422,60167,-123.253012048193,5126,-37.0963855421687,-15617,398.656488549618,-26112,238.427480916031,14847,-226.671755725191,-27899,-40632.3897435897,24329,17823.4432234432,41992,30763.36996337,15880,11633.6996336996,12808,9383.15018315018,3994.359375,1.85618993388467,51314,145.714599396085,48392,257.207461842849,3.88791208791209,
16264704,115214713.439941,1711748282433.69,12021,-706.409638554217,60679,-120.168674698795,5126,-37.0963855421687,-15617,254.045801526718,-16640,238.427480916031,20479,-312.656488549618,-27643,-40259.5487179487,24329,17823.4432234432,47880,35076.9230769231,29960,21948.7179487179,12552,9195.60439560439,3994.359375,0.937798656540774,47986,128.84303116443,48136,284.671532846715,3.51282051282051,
16297472,115215713.439941,1711748283433.69,12789,-700.240963855422,60167,-129.421686746988,5638,-43.2650602409639,-15617,304.854961832061,-19968,238.427480916031,13567,-207.129770992366,-26875,-39141.0256410256,27913,20449.0842490842,56840,41641.0256410256,57352,42016.1172161172,12552,9195.60439560439,3994.359375,1.50757701092152,50034,139.240223699633,48392,257.207461842849,3.88791208791209,
16330240,115216713.439941,1711748284433.69,12789,-697.156626506024,59911,-129.421686746988,5382,-40.1807228915663,-15617,351.75572519084,-23040,238.427480916031,12543,-191.496183206107,-27643,-40259.5487179487,25609,18761.1721611722,54792,40140.6593406593,58376,42766.3003663004,13064,9570.69597069597,3994.359375,1.85618993388467,51314,145.714599396085,48392,257.207461842849,3.88791208791209,
16395776,115730713.439941,1711748798433.69,13045,-694.072289156627,59655,-132.506024096386,5638,-43.2650602409639,-15617,418.198473282443,-27392,238.427480916031,3327,-50.793893129771,-31739,-46225.0051282051,9993,7320.87912087912,12552,9195.60439560439,4360,3194.13919413919,13320,9758.24175824176,3994.359375,2.53385989623798,53874,158.617113885824,48392,257.207461842849,3.88791208791209,
16428544,115731713.439941,1711748799433.69,12789,-697.156626506024,59911,-129.421686746988,5894,-46.3493975903614,-15617,426.015267175572,-27904,238.427480916031,8703,-132.870229007634,-27899,-40632.3897435897,18953,13884.9816849817,23560,17260.0732600733,35336,25887.1794871795,13320,9758.24175824176,3994.359375,3.6160297016227,58226,180.438164172323,48392,257.207461842849,3.88791208791209,
16461312,115732713.439941,1711748800433.69,12533,-703.325301204819,60423,-126.33734939759,5126,-37.0963855421687,-15617,426.015267175572,-27904,238.427480916031,1791,-27.3435114503817,-29947,-43615.1179487179,18185,13322.3443223443,27400,20073.2600732601,55816,40890.8424908425,12808,9383.15018315018,3994.36328125,3.43216308485301,57458,176.596169311528,48392,257.207461842849,3.88791208791209,
16494080,115733713.439941,1711748801433.69,12021,-703.325301204819,60423,-120.168674698795,5638,-43.2650602409639,-15617,402.564885496183,-26368,238.427480916031,2047,-31.2519083969466,-27131,-39513.8666666667,23561,17260.8058608059,38408,28137.7289377289,7944,5819.78021978022,13064,9570.69597069597,3994.36328125,2.92659263056031,55410,166.333195830808,48136,284.671532846715,3.51282051282051,
16526848,115734713.439941,1711748802433.69,12277,-703.325301204819,60423,-123.253012048193,5894,-46.3493975903614,-15617,351.75572519084,-23040,238.427480916031,5375,-82.0610687022901,-27899,-40632.3897435897,25097,18386.0805860806,46600,34139.1941391941,22536,16509.8901098901,13064,9570.69597069597,3994.36328125,2.79692057382166,54898,163.763085894523,48392,257.207461842849,3.88791208791209,
16559616,115735713.439941,1711748803433.69,11765,-700.240963855422,60167,-117.084337349398,5894,-46.3493975903614,-15617,355.664122137405,-23296,238.427480916031,9471,-144.595419847328,-27387,-39886.7076923077,26121,19136.2637362637,52488,38452.7472527472,44040,32263.7362637363,13576,9945.78754578755,3994.3671875,2.66601759523996,54386,161.19108498859,48136,284.671532846715,3.51282051282051,
16625152,116249713.439941,1711749317433.69,12277,-703.325301204819,60423,-123.253012048193,5638,-43.2650602409639,-15617,386.931297709924,-25344,238.427480916031,12031,-183.679389312977,-31739,-46225.0051282051,14857,10884.2490842491,32008,23449.0842490842,6920,5069.59706959707,14857,10884.2490842491,3994.3671875,1.92519444740477,51570,147.007501031486,48136,284.671532846715,3.51282051282051,
16657920,116250713.439941,1711749318433.69,12789,-706.409638554217,60679,-129.421686746988,5382,-40.1807228915663,-15617,390.839694656489,-25600,238.427480916031,18943,-289.206106870229,-31227,-45479.3230769231,11529,8446.15384615385,14344,10508.4249084249,25608,18760.4395604396,14600,10695.9706959707,3994.36328125,1.92518039902239,51570,147.007501031486,48392,257.207461842849,3.88791208791209,
16690688,116251713.439941,1711749319433.69,13045,-703.325301204819,60423,-132.506024096386,5894,-46.3493975903614,-15617,343.93893129771,-22528,238.427480916031,17407,-265.75572519084,-29435,-42869.4358974359,14857,10884.2490842491,14856,10883.5164835165,16904,12383.8827838828,14088,10320.8791208791,3994.36328125,2.66600332248918,54386,161.19108498859,48392,257.207461842849,3.88791208791209,
16723456,116252713.439941,1711749320433.69,12789,-700.240963855422,60167,-129.421686746988,5638,-43.2650602409639,-15617,418.198473282443,-27392,238.427480916031,13055,-199.312977099237,-27899,-40632.3897435897,21257,15572.8937728938,30472,22323.8095238095,59144,43328.9377289377,14600,10695.9706959707,3994.36328125,2.46736542426587,53618,157.329363533413,48392,257.207461842849,3.88791208791209,
16756224,116253713.439941,1711749321433.69,12533,-700.240963855422,60167,-126.33734939759,5638,-43.2650602409639,-15617,394.748091603053,-25856,238.427480916031,9471,-144.595419847328,-27387,-39886.7076923077,24841,18198.5347985348,43272,31701.0989010989,24840,18197.8021978022,14856,10883.5164835165,3994.3515625,2.19842378683287,52594,152.173005207607,48136,284.671532846715,3.51282051282051,
11776,116254713.439941,1711749322433.69,12534,-697.156626506024,59911,-126.349397590361,5382,-40.1807228915663,-15617,441.648854961832,-28928,238.427480916031,2047,-31.2519083969466,-27131,-39513.8666666667,26377,19323.8095238095,52488,38452.7472527472,44808,32826.3736263736,14856,10883.5164835165,3994.3515625,2.26606997322762,52850,153.462921415624,48392,257.207461842849,3.88791208791209,
44544,116255713.439941,1711749323433.69,12278,-700.240963855422,60167,-123.265060240964,5382,-40.1807228915663,-15617,367.389312977099,-24064,238.427480916031,2815,-42.9770992366412,-27899,-40632.3897435897,26377,19323.8095238095,56328,41265.9340659341,58632,42953.8461538461,15112,11071.0622710623,3994.3515625,2.92654958850704,55410,166.333195830808,48392,257.207461842849,3.88791208791209,
77312,116256713.439941,1711749324433.69,12022,-700.240963855422,60167,-120.180722891566,5382,-40.1807228915663,-15617,390.839694656489,-25600,238.427480916031,767,-11.7099236641221,-27131,-39513.8666666667,27145,19886.4468864469,58632,42953.8461538461,3848,2819.04761904762,15113,11071.7948717949,3994.33984375,3.61595704095927,58226,180.438164172323,48392,257.207461842849,3.88791208791209,
142848,116770713.439941,1711749838433.69,12534,-703.325301204819,60423,-126.349397590361,5894,-46.3493975903614,-15617,386.931297709924,-25344,238.427480916031,11775,-179.770992366412,-30971,-45106.482051282,14345,10509.1575091575,23304,17072.5274725275,40456,29638.0952380952,15368,11258.6080586081,3994.33984375,2.73152976693837,54642,162.477326662858,48392,257.207461842849,3.88791208791209,
175616,116771713.439941,1711749839433.69,12278,-706.409638554217,60679,-123.265060240964,5894,-46.3493975903614,-15617,418.198473282443,-27392,238.427480916031,8703,-132.870229007634,-29947,-43615.1179487179,15881,11634.4322344322,20744,15197.0695970696,38152,27950.1831501831,15112,11071.0622710623,3994.3515625,2.60004538317182,54130,159.904350835199,48392,257.207461842849,3.88791208791209,
208384,116772713.439941,1711749840433.69,12278,-700.240963855422,60167,-123.265060240964,5638,-43.2650602409639,-15617,351.75572519084,-23040,238.427480916031,14591,-222.763358778626,-29435,-42869.4358974359,16905,12384.6153846154,22536,16509.8901098901,40968,30013.1868131868,13576,9945.78754578755,3994.3515625,1.36643593569809,49522,136.645576685202,48392,257.207461842849,3.88791208791209,
241152,116773713.439941,1711749841433.69,12534,-703.325301204819,60423,-126.349397590361,5638,-43.2650602409639,-15617,351.75572519084,-23040,238.427480916031,12543,-191.496183206107,-27387,-39886.7076923077,22793,16698.1684981685,35848,26262.2710622711,60680,44454.2124542125,13575,9945.05494505494,3994.3515625,1.57775607769795,50290,140.536465421763,48392,257.207461842849,3.88791208791209,
273920,116774713.439941,1711749842433.69,13046,-697.156626506024,59911,-132.518072289157,5382,-40.1807228915663,-15617,320.488549618321,-20992,238.427480916031,14079,-214.946564885496,-27643,-40259.5487179487,23561,17260.8058608059,41736,30575.8241758242,5384,3944.32234432234,13576,9945.78754578755,3994.3515625,2.46732278134107,53618,157.329363533413,48136,284.671532846715,3.51282051282051,
306688,116775713.439941,1711749843433.69,12278,-700.240963855422,60167,-123.265060240964,5382,-40.1807228915663,-15617,320.488549618321,-20992,238.427480916031,11775,-179.770992366412,-27899,-40632.3897435897,25097,18386.0805860806,48136,35264.4688644689,25608,18760.4395604396,13064,9570.69597069597,3994.3515625,2.13050346166749,52338,150.882517832861,48392,257.207461842849,3.88791208791209,
339456,116776713.439941,1711749844433.69,12534,-700.240963855422,60167,-126.349397590361,5638,-43.2650602409639,-15617,402.564885496183,-26368,238.427480916031,3327,-50.793893129771,-27643,-40259.5487179487,24329,17823.4432234432,50696,37139.9267399267,39176,28700.3663003663,12808,9383.15018315018,3994.3515625,1.85616188060268,51314,145.714599396085,48136,284.671532846715,3.51282051282051,
372224,116777713.439941,1711749845433.69,12790,-700.240963855422,60167,-129.433734939759,5638,-43.2650602409639,-15617,375.206106870229,-24576,238.427480916031,4863,-74.2442748091603,-31483,-45852.1641025641,15881,11634.4322344322,32008,23449.0842490842,2312,1693.77289377289,12553,9196.336996337,3994.3515625,2.53383142819166,53874,158.617113885824,48392,257.207461842849,3.88791208791209,
404992,116778713.439941,1711749846433.69,12534,-703.325301204819,60423,-126.349397590361,5638,-43.2650602409639,-15617,453.374045801527,-29696,238.427480916031,1279,-19.5267175572519,-31483,-45852.1641025641,11785,8633.69963369963,14600,10695.9706959707,26888,19698.1684981685,12296,9008.05860805861,3994.3515625,3.37011481106807,57202,175.314737869875,48392,257.207461842849,3.88791208791209,
470528,117292713.439941,1711750360433.69,12278,-703.325301204819,60423,-123.265060240964,5382,-40.1807228915663,-15617,347.847328244275,-22784,238.427480916031,5631,-85.969465648855,-31227,-45479.3230769231,9737,7133.33333333333,62984,46142.1245421245,34567,25323.8095238095,10760,7882.78388278388,3994.3515625,3.49377161873136,57714,177.877212664284,48136,284.671532846715,3.51282051282051,
503296,117293713.439941,1711750361433.69,12278,-697.156626506024,59911,-123.265060240964,5126,-37.0963855421687,-15617,340.030534351145,-22272,238.427480916031,8959,-136.778625954198,-27899,-40632.3897435897,19209,14072.5274725275,18952,13884.2490842491,31240,22886.4468864469,10504,7695.23809523809,3994.3515625,3.18202469778768,56434,171.468039018049,48392,257.207461842849,3.88791208791209,
536064,117294713.439941,1711750362433.69,12278,-700.240963855422,60167,-123.265060240964,5382,-40.1807228915663,-15617,363.480916030534,-23808,238.427480916031,11007,-168.045801526718,-28411,-41378.0717948718,21257,15572.8937728938,32008,23449.0842490842,264,193.406593406593,10505,7695.9706959707,3994.3515625,2.60004538317182,54130,159.904350835199,48136,284.671532846715,3.51282051282051,
568832,117295713.439941,1711750363433.69,12278,-703.325301204819,60423,-123.265060240964,5382,-40.1807228915663,-15617,336.12213740458,-22016,238.427480916031,14591,-222.763358778626,-27387,-39886.7076923077,24841,18198.5347985348,44040,32263.7362637363,27400,20073.2600732601,10504,7695.23809523809,3994.3671875,2.60010239719002,54130,159.904350835199,48392,257.207461842849,3.88791208791209,
601600,117296713.439941,1711750364433.69,12790,-703.325301204819,60423,-129.433734939759,5638,-43.2650602409639,-15617,332.213740458015,-21760,238.427480916031,11263,-171.954198473282,-27387,-39886.7076923077,26121,19136.2637362637,51208,37515.0183150183,40456,29638.0952380952,9992,7320.14652014652,3994.3671875,2.40058035356703,53362,156.041088870443,48392,257.207461842849,3.88791208791209,
634368,117297713.439941,1711750365433.69,13302,-700.240963855422,60167,-135.602409638554,5638,-43.2650602409639,-15617,355.664122137405,-23296,238.427480916031,15103,-230.580152671756,-31227,-45479.3230769231,16905,12384.6153846154,34824,25512.0879120879,57096,41828.5714285714,9991,7319.41391941392,3994.3671875,2.130559910824,52338,150.882517832861,48392,257.207461842849,3.88791208791209,
667136,117298713.439941,1711750366433.69,12790,-706.409638554217,60679,-129.433734939759,5638,-43.2650602409639,-15617,316.580152671756,-20736,238.427480916031,7423,-113.328244274809,-31483,-45852.1641025641,12297,9008.79120879121,16136,11821.2454212454,14088,10320.8791208791,9992,7320.14652014652,3994.359375,1.99388479301247,51826,148.2997788902,48392,257.207461842849,3.88791208791209,
699904,117299713.439941,1711750367433.69,12790,-700.240963855422,60167,-129.433734939759,5382,-40.1807228915663,-15617,410.381679389313,-26880,238.427480916031,10239,-156.320610687023,-27643,-40259.5487179487,18697,13697.4358974359,24584,18010.2564102564,40200,29450.5494505494,10248,7507.69230769231,3994.359375,2.40055196484398,53362,156.041088870443,48136,284.671532846715,3.51282051282051,
732672,117300713.439941,1711750368433.69,12534,-697.156626506024,59911,-126.349397590361,5126,-37.0963855421687,-15617,386.931297709924,-25344,238.427480916031,8959,-136.778625954198,-27643,-40259.5487179487,21769,15947.9853479853,34568,25324.5421245421,58376,42766.3003663004,8967,6569.23076923077,3994.359375,2.79690626329059,54898,163.763085894523,48392,257.207461842849,3.88791208791209,
765440,117301713.439941,1711750369433.69,12790,-700.240963855422,60167,-129.433734939759,5382,-40.1807228915663,-15617,394.748091603053,-25856,238.427480916031,7167,-109.419847328244,-27643,-40259.5487179487,23049,16885.7142857143,41224,30200.7326007326,2056,1506.22710622711,9224,6757.50915750916,5274.359375,6.75580504086455,52338,150.882517832861,48136,284.671532846715,3.51282051282051,
830976,117815713.439941,1711750883433.69,12022,-700.240963855422,60167,-120.180722891566,5382,-40.1807228915663,-15617,351.75572519084,-23040,238.427480916031,11775,-179.770992366412,-27899,-40632.3897435897,46601,34139.9267399267,29960,21948.7179487179,47880,35076.9230769231,9480,6945.05494505494,5274.359375,7.41570806523397,54642,162.477326662858,48136,284.671532846715,3.51282051282051,
863744,117816713.439941,1711750884433.69,12022,-700.240963855422,60167,-120.180722891566,5638,-43.2650602409639,-15617,375.206106870229,-24576,238.427480916031,7167,-109.419847328244,-27899,-40632.3897435897,34825,25512.8205128205,64008,46892.3076923077,53767,39389.7435897436,10504,7695.23809523809,5274.36328125,6.45340059513788,51314,145.714599396085,48392,257.207461842849,3.88791208791209,
896512,117817713.439941,1711750885433.69,12534,-703.325301204819,60423,-126.349397590361,5638,-43.2650602409639,-15617,320.488549618321,-20992,238.427480916031,8447,-128.961832061069,-31227,-45479.3230769231,19977,14635.1648351648,19720,14446.8864468864,38408,28137.7289377289,10248,7507.69230769231,5274.36328125,6.83057696770287,52594,152.173005207607,48136,284.671532846715,3.51282051282051,
929280,117818713.439941,1711750886433.69,12534,-700.240963855422,60167,-126.349397590361,5894,-46.3493975903614,-15617,390.839694656489,-25600,238.427480916031,12031,-183.679389312977,-31483,-45852.1641025641,14089,10321.6117216117,15880,11633.6996336996,23304,17072.5274725275,10760,7882.78388278388,5274.36328125,6.979044095987,53106,154.752278678203,48392,257.207461842849,3.88791208791209,
962048,117819713.439941,1711750887433.69,12534,-697.156626506024,59911,-126.349397590361,6150,-49.433734939759,-15617,324.396946564885,-21248,238.427480916031,10751,-164.137404580153,-27387,-39886.7076923077,21257,15572.8937728938,30728,22511.3553113553,59144,43328.9377289377,10504,7695.23809523809,5274.35546875,6.22312988619579,50546,141.832008109172,48136,284.671532846715,3.51282051282051,
994816,117820713.439941,1711750888433.69,12534,-700.240963855422,60167,-126.349397590361,5638,-43.2650602409639,-15617,383.022900763359,-25088,238.427480916031,10751,-164.137404580153,-27643,-40259.5487179487,23049,16885.7142857143,39688,29075.4578754579,14344,10508.4249084249,12296,9008.05860805861,5274.35546875,6.68068982706821,52082,149.591446711184,48392,257.207461842849,3.88791208791209,
1027584,117821713.439941,1711750889433.69,12278,-697.156626506024,59911,-123.265060240964,5126,-37.0963855421687,-15617,398.656488549618,-26112,238.427480916031,8703,-132.870229007634,-27643,-40259.5487179487,23561,17260.8058608059,43272,31701.0989010989,14088,10320.8791208791,12808,9383.15018315018,5274.35546875,7.19902536014264,53874,158.617113885824,48136,284.671532846715,3.51282051282051,
1060352,117822713.439941,1711750890433.69,12534,-703.325301204819,60423,-126.349397590361,5638,-43.2650602409639,-15617,386.931297709924,-25344,238.427480916031,10495,-160.229007633588,-27643,-40259.5487179487,23817,17448.3516483516,46600,34139.1941391941,24072,17635.1648351648,12296,9008.05860805861,5274.359375,7.69918321538948,55666,167.617565290017,48392,257.207461842849,3.88791208791209,
1093120,117823713.439941,1711750891433.69,12790,-700.240963855422,60167,-129.433734939759,5638,-43.2650602409639,-15617,367.389312977099,-24064,238.427480916031,9983,-152.412213740458,-27899,-40632.3897435897,25097,18386.0805860806,50184,36764.8351648352,36616,26824.9084249084,13320,9758.24175824176,5274.359375,7.19903960011667,53874,158.617113885824,48392,257.207461842849,3.88791208791209,
1125888,117824713.439941,1711750892433.69,12790,-703.325301204819,60423,-129.433734939759,5894,-46.3493975903614,-15617,375.206106870229,-24576,238.427480916031,6655,-101.603053435115,-27387,-39886.7076923077,26377,19323.8095238095,55560,40703.2967032967,55816,40890.8424908425,13832,10133.3333333333,5274.359375,6.60526408390478,51826,148.2997788902,48392,257.207461842849,3.88791208791209,
1158656,117825713.439941,1711750893433.69,12278,-697.156626506024,59911,-123.265060240964,5382,-40.1807228915663,-15617,347.847328244275,-22784,238.427480916031,8191,-125.053435114504,-31227,-45479.3230769231,16905,12384.6153846154,36616,26824.9084249084,3592,2631.50183150183,13576,9945.78754578755,5274.36328125,6.37697200524455,51058,144.421059829358,48392,257.207461842849,3.88791208791209,
1191424,117826713.439941,1711750894433.69,12022,-694.072289156627,59655,-120.180722891566,5382,-40.1807228915663,-15617,351.75572519084,-23040,238.427480916031,10239,-156.320610687023,-31227,-45479.3230769231,12553,9196.336996337,18696,13696.7032967033,23560,17260.0732600733,13576,9945.78754578755,5274.36328125,6.52950416180876,51570,147.007501031486,48136,284.671532846715,3.51282051282051,
1224192,117827713.439941,1711750895433.69,12278,-697.156626506024,59911,-123.265060240964,5126,-37.0963855421687,-15617,383.022900763359,-25088,238.427480916031,7423,-113.328244274809,-30203,-43987.958974359,13321,9758.97435897436,12040,8820.51282051282,8968,6569.96336996337,13832,10133.3333333333,5274.36328125,6.979044095987,53106,154.752278678203,48392,257.207461842849,3.88791208791209,
1256960,117828713.439941,1711750896433.69,12278,-700.240963855422,60167,-123.265060240964,5382,-40.1807228915663,-15617,410.381679389313,-26880,238.427480916031,8191,-125.053435114504,-27899,-40632.3897435897,20489,15010.2564102564,25608,18760.4395604396,41992,30763.36996337,14600,10695.9706959707,5274.359375,8.17952902557823,57458,176.596169311528,48136,284.671532846715,3.51282051282051,
1289728,117829713.439941,1711750897433.69,12022,-703.325301204819,60423,-120.180722891566,5126,-37.0963855421687,-15617,414.290076335878,-27136,238.427480916031,11775,-179.770992366412,-27899,-40632.3897435897,24073,17635.8974358974,39432,28887.9120879121,7688,5632.23443223443,15112,11071.0622710623,5274.359375,7.55823500811727,55154,165.048372449227,48392,257.207461842849,3.88791208791209,
1322496,117830713.439941,1711750898433.69,12790,-709.493975903614,60935,-129.433734939759,5638,-43.2650602409639,-15617,406.473282442748,-26624,238.427480916031,6143,-93.7862595419847,-27131,-39513.8666666667,26121,19136.2637362637,49416,36202.1978021978,32008,23449.0842490842,15112,11071.0622710623,5274.359375,7.69918321538948,55666,167.617565290017,48392,257.207461842849,3.88791208791209,
1355264,117831713.439941,1711750899433.69,12534,-703.325301204819,60423,-126.349397590361,5382,-40.1807228915663,-15617,383.022900763359,-25088,238.427480916031,11263,-171.954198473282,-25595,-37276.8205128205,30217,22136.9963369963,61960,45391.9413919414,5896,4319.41391941392,15625,11446.8864468864,5274.3515625,7.05270152937257,53362,156.041088870443,48392,257.207461842849,3.88791208791209,
1388032,117832713.439941,1711750900433.69,12534,-697.156626506024,59911,-126.349397590361,5126,-37.0963855421687,-15617,371.297709923664,-24320,238.427480916031,3071,-46.8854961832061,-27899,-40632.3897435897,28169,20636.63003663,62984,46142.1245421245,18184,13321.6117216117,16137,11821.978021978,5274.3515625,6.97900155572999,53106,154.752278678203,48392,257.207461842849,3.88791208791209,
1420800,117833713.439941,1711750901433.69,12278,-703.325301204819,60423,-123.265060240964,6150,-49.433734939759,-15617,383.022900763359,-25088,238.427480916031,5119,-78.1526717557252,-31227,-45479.3230769231,17673,12947.2527472527,41736,30575.8241758242,26888,19698.1684981685,15880,11633.6996336996,5274.3515625,6.83053455066141,52594,152.173005207607,48392,257.207461842849,3.88791208791209,
1453568,117834713.439941,1711750902433.69,12278,-706.409638554217,60679,-123.265060240964,5894,-46.3493975903614,-15617,359.572519083969,-23552,238.427480916031,13311,-203.221374045802,30725,44748.2051282051,2313,1694.50549450549,16393,12009.5238095238,21256,15572.1611721612,15112,11071.0622710623,5274.34765625,6.83052041164762,52594,152.173005207607,48136,284.671532846715,3.51282051282051,
1486336,117835713.439941,1711750903433.69,12278,-697.156626506024,59911,-123.265060240964,5126,-37.0963855421687,-15617,383.022900763359,-25088,238.427480916031,9983,-152.412213740458,-29947,-43615.1179487179,38409,28138.4615384615,2312,1693.77289377289,41480,30388.2783882784,14599,10695.2380952381,5274.34765625,7.9761502244569,56690,172.750680519605,48392,257.207461842849,3.88791208791209,
1519104,117836713.439941,1711750904433.69,12278,-706.409638554217,60679,-123.265060240964,5382,-40.1807228915663,-15617,371.297709923664,-24320,238.427480916031,9471,-144.595419847328,-29947,-43615.1179487179,25865,18948.7179487179,33288,24386.8131868132,37384,27387.5457875458,13831,10132.6007326007,5274.34765625,7.69914010101641,55666,167.617565290017,48136,284.671532846715,3.51282051282051,
1551872,117837713.439941,1711750905433.69,12534,-709.493975903614,60935,-126.349397590361,6150,-49.433734939759,-15617,371.297709923664,-24320,238.427480916031,7679,-117.236641221374,-31483,-45852.1641025641,16905,12384.6153846154,27400,20073.2600732601,39944,29263.0036630037,13320,9758.24175824176,5274.35546875,6.97901573581565,53106,154.752278678203,48392,257.207461842849,3.88791208791209,
1584640,117838713.439941,1711750906433.69,12534,-703.325301204819,60423,-126.349397590361,5638,-43.2650602409639,-15617,347.847328244275,-22784,238.427480916031,5119,-78.1526717557252,-27899,-40632.3897435897,22281,16323.0769230769,37896,27762.6373626374,1288,943.589743589744,12808,9383.15018315018,5274.35546875,6.68068982706821,52082,149.591446711184,48136,284.671532846715,3.51282051282051,
1617408,117839713.439941,1711750907433.69,12278,-697.156626506024,59911,-123.265060240964,5382,-40.1807228915663,-15617,402.564885496183,-26368,238.427480916031,5375,-82.0610687022901,-27899,-40632.3897435897,24585,18010.989010989,44552,32638.8278388278,14600,10695.9706959707,12808,9383.15018315018,5274.35546875,7.12605382756153,53618,157.329363533413,48392,257.207461842849,3.88791208791209,
1650176,117840713.439941,1711750908433.69,12022,-706.409638554217,60679,-120.180722891566,5382,-40.1807228915663,-15617,367.389312977099,-24064,238.427480916031,8703,-132.870229007634,30981,45121.0461538461,7433,5445.42124542124,30473,22324.5421245421,58632,42953.8461538461,12808,9383.15018315018,5274.359375,6.52949010762911,51570,147.007501031486,48136,284.671532846715,3.51282051282051,
1682944,117841713.439941,1711750909433.69,12022,-703.325301204819,60423,-120.180722891566,5382,-40.1807228915663,-15617,324.396946564885,-21248,238.427480916031,12031,-183.679389312977,-30971,-45106.482051282,38153,27950.9157509157,7688,5632.23443223443,2056,1506.22710622711,12808,9383.15018315018,5274.359375,7.34386429397656,54386,161.19108498859,48136,284.671532846715,3.51282051282051,
1715712,117842713.439941,1711750910433.69,12278,-700.240963855422,60167,-123.265060240964,4870,-34.0120481927711,-15617,390.839694656489,-25600,238.427480916031,11263,-171.954198473282,-31227,-45479.3230769231,21513,15760.4395604396,25608,18760.4395604396,40200,29450.5494505494,12552,9195.60439560439,5274.359375,6.97902991590132,53106,154.752278678203,48392,257.207461842849,3.88791208791209,
1748480,117843713.439941,1711750911433.69,12278,-703.325301204819,60423,-123.265060240964,5382,-40.1807228915663,-15617,355.664122137405,-23296,238.427480916031,14079,-214.946564885496,-27643,-40259.5487179487,23305,17073.2600732601,39176,28700.3663003663,6920,5069.59706959707,12040,8820.51282051282,5274.359375,7.05272992993133,53362,156.041088870443,48392,257.207461842849,3.88791208791209,
1781248,117844713.439941,1711750912433.69,12534,-706.409638554217,60679,-126.349397590361,5638,-43.2650602409639,-15617,340.030534351145,-22272,238.427480916031,10751,-164.137404580153,-27899,-40632.3897435897,25097,18386.0805860806,47112,34514.2857142857,23048,16884.9816849817,12296,9008.05860805861,5274.359375,6.14576724222418,50290,140.536465421763,48392,257.207461842849,3.88791208791209,
1814016,117845713.439941,1711750913433.69,12278,-700.240963855422,60167,-123.265060240964,5126,-37.0963855421687,-15617,363.480916030534,-23808,238.427480916031,8447,-128.961832061069,-27387,-39886.7076923077,26121,19136.2637362637,52488,38452.7472527472,44296,32451.2820512821,12040,8820.51282051282,5274.359375,6.06808353547662,50034,139.240223699633,48136,284.671532846715,3.51282051282051,
1846784,117846713.439941,1711750914433.69,12278,-700.240963855422,60167,-123.265060240964,5894,-46.3493975903614,-15617,312.671755725191,-20480,238.427480916031,5887,-89.8778625954198,-27643,-40259.5487179487,25097,18386.0805860806,52744,38640.293040293,49672,36389.7435897436,12040,8820.51282051282,5274.3515625,5.91178467926557,49522,136.645576685202,48392,257.207461842849,3.88791208791209,
1879552,117847713.439941,1711750915433.69,12790,-703.325301204819,60423,-129.433734939759,5894,-46.3493975903614,-15617,340.030534351145,-22272,238.427480916031,7679,-117.236641221374,30725,44748.2051282051,5897,4320.14652014652,30729,22512.0879120879,8,5.86080586080586,11785,8633.69963369963,5274.3515625,6.75577680458646,52338,150.882517832861,48136,284.671532846715,3.51282051282051,
1912320,117848713.439941,1711750916433.69,12022,-694.072289156627,59655,-120.180722891566,5638,-43.2650602409639,-15617,386.931297709924,-25344,238.427480916031,6143,-93.7862595419847,-27643,-40259.5487179487,43785,32076.9230769231,22792,16697.4358974359,49928,36577.2893772894,12040,8820.51282051282,5274.3515625,5.91178467926557,49522,136.645576685202,48392,257.207461842849,3.88791208791209,
1945088,117849713.439941,1711750917433.69,12278,-700.240963855422,60167,-123.265060240964,5638,-43.2650602409639,-15617,394.748091603053,-25856,238.427480916031,8447,-128.961832061069,-31227,-45479.3230769231,24073,17635.8974358974,37896,27762.6373626374,3848,2819.04761904762,12296,9008.05860805861,5274.3515625,7.27161139089421,54130,159.904350835199,48136,284.671532846715,3.51282051282051,
1977856,117850713.439941,1711750918433.69,12534,-700.240963855422,60167,-126.349397590361,5638,-43.2650602409639,-15617,379.114503816794,-24832,238.427480916031,8191,-125.053435114504,-31483,-45852.1641025641,15881,11634.4322344322,26888,19698.1684981685,45576,33389.010989011,11528,8445.42124542124,5274.3515625,6.30018094930166,50802,143.126867745139,48392,257.207461842849,3.88791208791209,
2010624,117851713.439941,1711750919433.69,12534,-697.156626506024,59911,-126.349397590361,5382,-40.1807228915663,-15617,418.198473282443,-27392,238.427480916031,9471,-144.595419847328,-27899,-40632.3897435897,21513,15760.4395604396,34056,24949.4505494505,57096,41828.5714285714,11527,8444.68864468864,5274.3515625,6.83053455066141,52594,152.173005207607,48136,284.671532846715,3.51282051282051,
2076160,118365713.439941,1711751433433.69,12534,-697.156626506024,59911,-126.349397590361,5382,-40.1807228915663,-15617,410.381679389313,-26880,238.427480916031,8959,-136.778625954198,-30203,-43987.958974359,18185,13322.3443223443,34568,25324.5421245421,48648,35639.5604395604,12039,8819.78021978022,5274.359375,5.67521158616821,48754,132.747933829529,48136,284.671532846715,3.51282051282051,
2108928,118366713.439941,1711751434433.69,12534,-700.240963855422,60167,-126.349397590361,5126,-37.0963855421687,-15617,394.748091603053,-25856,238.427480916031,12287,-187.587786259542,-27387,-39886.7076923077,23049,16885.7142857143,41224,30200.7326007326,65032,47642.4908424908,12295,9007.32600732601,5274.359375,6.22314385204421,50546,141.832008109172,48392,257.207461842849,3.88791208791209,
2141696,118367713.439941,1711751435433.69,12278,-694.072289156627,59655,-123.265060240964,5126,-37.0963855421687,-15617,359.572519083969,-23552,238.427480916031,8703,-132.870229007634,-27899,-40632.3897435897,24841,18198.5347985348,47880,35076.9230769231,25864,18947.9853479853,12552,9195.60439560439,5274.359375,6.68070392410885,52082,149.591446711184,48392,257.207461842849,3.88791208791209,
2240000,118882713.439941,1711751950433.69,12534,-703.325301204819,60423,-126.349397590361,5638,-43.2650602409639,-15617,379.114503816794,-24832,238.427480916031,7423,-113.328244274809,-31739,-46225.0051282051,11017,8071.06227106227,16392,12008.7912087912,15880,11633.6996336996,12808,9383.15018315018,5274.359375,7.55823500811727,55154,165.048372449227,48392,257.207461842849,3.88791208791209,
2272768,118883713.439941,1711751951433.69,12534,-700.240963855422,60167,-126.349397590361,5382,-40.1807228915663,-15617,414.290076335878,-27136,238.427480916031,11263,-171.954198473282,-27643,-40259.5487179487,18185,13322.3443223443,24584,18010.2564102564,40712,29825.641025641,12552,9195.60439560439,5274.359375,6.83056282868903,52594,152.173005207607,48392,257.207461842849,3.88791208791209,
2338304,119397713.439941,1711752465433.69,12278,-703.325301204819,60423,-123.265060240964,5638,-43.2650602409639,-15617,328.30534351145,-21504,238.427480916031,10239,-156.320610687023,-29947,-43615.1179487179,19977,14635.1648351648,36360,26637.3626373626,54792,40140.6593406593,12295,9007.32600732601,5274.359375,7.41570806523397,54642,162.477326662858,48392,257.207461842849,3.88791208791209,
2371072,119398713.439941,1711752466433.69,12790,-700.240963855422,60167,-129.433734939759,5638,-43.2650602409639,-15617,347.847328244275,-22784,238.427480916031,11519,-175.862595419847,-27643,-40259.5487179487,22281,16323.0769230769,41480,30388.2783882784,1800,1318.68131868132,12552,9195.60439560439,5274.359375,5.91181242752301,49522,136.645576685202,48136,284.671532846715,3.51282051282051,
2403840,119399713.439941,1711752467433.69,12534,-700.240963855422,60167,-126.349397590361,5638,-43.2650602409639,-15617,293.129770992366,-19200,238.427480916031,13823,-211.038167938931,-27387,-39886.7076923077,25097,18386.0805860806,47880,35076.9230769231,26376,19323.0769230769,12552,9195.60439560439,5274.359375,7.05272992993133,53362,156.041088870443,48392,257.207461842849,3.88791208791209,
2436608,119400713.439941,1711752468433.69,12534,-697.156626506024,59911,-126.349397590361,5126,-37.0963855421687,-15617,394.748091603053,-25856,238.427480916031,7679,-117.236641221374,-27387,-39886.7076923077,26121,19136.2637362637,53000,38827.8388278388,47368,34701.8315018315,12296,9008.05860805861,5274.359375,7.27163990983746,54130,159.904350835199,48136,284.671532846715,3.51282051282051,
2469376,119401713.439941,1711752469433.69,12022,-697.156626506024,59911,-120.180722891566,5382,-40.1807228915663,-15617,426.015267175572,-27904,238.427480916031,10751,-164.137404580153,-31739,-46225.0051282051,14857,10884.2490842491,30472,22323.8095238095,1288,943.589743589744,12041,8821.24542124542,5274.359375,6.97902991590132,53106,154.752278678203,48392,257.207461842849,3.88791208791209,
2502144,119402713.439941,1711752470433.69,12790,-700.240963855422,60167,-129.433734939759,5382,-40.1807228915663,-15617,433.832061068702,-28416,238.427480916031,7935,-121.145038167939,-31483,-45852.1641025641,11273,8258.60805860806,11784,8632.96703296703,17416,12758.9743589744,12040,8820.51282051282,5274.359375,6.97902991590132,53106,154.752278678203,48136,284.671532846715,3.51282051282051,
2534912,119403713.439941,1711752471433.69,12278,-703.325301204819,60423,-123.265060240964,5126,-37.0963855421687,-15617,371.297709923664,-24320,238.427480916031,11007,-168.045801526718,-27643,-40259.5487179487,18185,13322.3443223443,22792,16697.4358974359,38152,27950.1831501831,11528,8445.42124542124,5274.3515625,8.44447992221333,58482,181.718086411407,48392,257.207461842849,3.88791208791209,
2600448,119917713.439941,1711752985433.69,12278,-703.325301204819,60423,-123.265060240964,5382,-40.1807228915663,-15617,343.93893129771,-22528,238.427480916031,5887,-89.8778625954198,-28155,-41005.2307692308,22537,16510.6227106227,38664,28325.2747252747,59144,43328.9377289377,12295,9007.32600732601,5274.3515625,7.19901112016862,53874,158.617113885824,48392,257.207461842849,3.88791208791209,
2633216,119918713.439941,1711752986433.69,12022,-706.409638554217,60679,-120.180722891566,5382,-40.1807228915663,-15617,386.931297709924,-25344,238.427480916031,7423,-113.328244274809,-27643,-40259.5487179487,23305,17073.2600732601,44552,32638.8278388278,12552,9195.60439560439,12040,8820.51282051282,5274.34765625,6.68066163298699,52082,149.591446711184,48136,284.671532846715,3.51282051282051,
2665984,119919713.439941,1711752987433.69,12534,-700.240963855422,60167,-126.349397590361,5382,-40.1807228915663,-15617,351.75572519084,-23040,238.427480916031,7935,-121.145038167939,-27387,-39886.7076923077,25353,18573.6263736264,50952,37327.4725274725,38408,28137.7289377289,11784,8632.96703296703,5274.34765625,7.05268732909322,53362,156.041088870443,48392,257.207461842849,3.88791208791209,
2698752,119920713.439941,1711752988433.69,12278,-700.240963855422,60167,-123.265060240964,5382,-40.1807228915663,-15617,379.114503816794,-24832,238.427480916031,11007,-168.045801526718,-27387,-39886.7076923077,26377,19323.8095238095,55816,40890.8424908425,56584,41453.4798534799,11528,8445.42124542124,5274.34765625,6.37691596346712,51058,144.421059829358,48392,257.207461842849,3.88791208791209,
2731520,119921713.439941,1711752989433.69,12534,-694.072289156627,59655,-126.349397590361,5382,-40.1807228915663,-15617,336.12213740458,-22016,238.427480916031,13567,-207.129770992366,-29947,-43615.1179487179,21257,15572.8937728938,47368,34701.8315018315,37128,27200,12040,8820.51282051282,5274.34375,7.27158287195103,54130,159.904350835199,48392,257.207461842849,3.88791208791209,
2764288,119922713.439941,1711752990433.69,12534,-700.240963855422,60167,-126.349397590361,5382,-40.1807228915663,-15617,394.748091603053,-25856,238.427480916031,15871,-242.30534351145,-30459,-44360.8,16649,12197.0695970696,33032,24199.2673992674,51720,37890.1098901099,11783,8632.23443223443,5274.34375,7.12601116683345,53618,157.329363533413,48392,257.207461842849,3.88791208791209,
2797056,119923713.439941,1711752991433.69,12278,-703.325301204819,60423,-123.265060240964,4870,-34.0120481927711,-15617,410.381679389313,-26880,238.427480916031,12543,-191.496183206107,-29691,-43242.2769230769,15369,11259.3406593407,22792,16697.4358974359,30728,22511.3553113553,11528,8445.42124542124,5274.34375,6.14571146929654,50290,140.536465421763,48136,284.671532846715,3.51282051282051,
2829824,119924713.439941,1711752992433.69,13046,-703.325301204819,60423,-132.518072289157,5382,-40.1807228915663,-15617,379.114503816794,-24832,238.427480916031,8703,-132.870229007634,-27899,-40632.3897435897,21257,15572.8937728938,33800,24761.9047619048,51208,37515.0183150183,12295,9007.32600732601,5274.35546875,6.52947605344948,51570,147.007501031486,48392,257.207461842849,3.88791208791209,
2895360,120438713.439941,1711753506433.69,12790,-703.325301204819,60423,-129.433734939759,5638,-43.2650602409639,-15617,375.206106870229,-24576,238.427480916031,4351,-66.4274809160305,-27387,-39886.7076923077,22793,16698.1684981685,38152,27950.1831501831,4360,3194.13919413919,12552,9195.60439560439,5274.35546875,6.68068982706821,52082,149.591446711184,48392,257.207461842849,3.88791208791209,
2928128,120439713.439941,1711753507433.69,12278,-690.987951807229,59399,-123.265060240964,5638,-43.2650602409639,-15617,375.206106870229,-24576,238.427480916031,4863,-74.2442748091603,-27387,-39886.7076923077,25353,18573.6263736264,48136,35264.4688644689,25608,18760.4395604396,12296,9008.05860805861,5274.35546875,6.45337253029699,51314,145.714599396085,48136,284.671532846715,3.51282051282051,
2960896,120440713.439941,1711753508433.69,12278,-700.240963855422,60167,-123.265060240964,5894,-46.3493975903614,-15617,363.480916030534,-23808,238.427480916031,4863,-74.2442748091603,30725,44748.2051282051,6153,4507.69230769231,27401,20073.9926739927,53256,39015.3846153846,12296,9008.05860805861,5274.35546875,7.90754898589906,56434,171.468039018049,48392,257.207461842849,3.88791208791209,
2993664,120441713.439941,1711753509433.69,12022,-706.409638554217,60679,-120.180722891566,5126,-37.0963855421687,-15617,457.282442748092,-29952,238.427480916031,7679,-117.236641221374,-27899,-40632.3897435897,45065,33014.652014652,23048,16884.9816849817,47112,34514.2857142857,12040,8820.51282051282,5274.35546875,7.90754898589906,56434,171.468039018049,48136,284.671532846715,3.51282051282051,
3026432,120442713.439941,1711753510433.69,12534,-697.156626506024,59911,-126.349397590361,5126,-37.0963855421687,-15617,426.015267175572,-27904,238.427480916031,11263,-171.954198473282,-31739,-46225.0051282051,23049,16885.7142857143,35848,26262.2710622711,61960,45391.9413919414,12807,9382.41758241758,5274.35546875,6.3769439843558,51058,144.421059829358,48392,257.207461842849,3.88791208791209,
3059200,120443713.439941,1711753511433.69,12278,-700.240963855422,60167,-123.265060240964,5126,-37.0963855421687,-15617,371.297709923664,-24320,238.427480916031,14591,-222.763358778626,-29691,-43242.2769230769,18441,13509.8901098901,30984,22698.9010989011,54280,39765.5677655678,12296,9008.05860805861,5274.35546875,6.97901573581565,53106,154.752278678203,48136,284.671532846715,3.51282051282051,
3091968,120444713.439941,1711753512433.69,12534,-703.325301204819,60423,-126.349397590361,5126,-37.0963855421687,-15617,343.93893129771,-22528,238.427480916031,12287,-187.587786259542,-31739,-46225.0051282051,11529,8446.15384615385,13832,10133.3333333333,20488,15009.5238095238,12040,8820.51282051282,5274.35546875,6.3769439843558,51058,144.421059829358,48392,257.207461842849,3.88791208791209,
3124736,120445713.439941,1711753513433.69,13046,-697.156626506024,59911,-132.518072289157,5638,-43.2650602409639,-15617,308.763358778626,-20224,238.427480916031,11263,-171.954198473282,-27899,-40632.3897435897,19721,14447.619047619,25864,18947.9853479853,46856,34326.7399267399,12552,9195.60439560439,5274.36328125,6.45340059513788,51314,145.714599396085,48136,284.671532846715,3.51282051282051,
3157504,120446713.439941,1711753514433.69,12790,-694.072289156627,59655,-129.433734939759,5382,-40.1807228915663,-15617,371.297709923664,-24320,238.427480916031,11007,-168.045801526718,-29947,-43615.1179487179,18441,13509.8901098901,26888,19698.1684981685,56072,41078.3882783883,11784,8632.96703296703,5274.36328125,6.45340059513788,51314,145.714599396085,48392,257.207461842849,3.88791208791209,
3190272,120447713.439941,1711753515433.69,12534,-697.156626506024,59911,-126.349397590361,5382,-40.1807228915663,-15617,363.480916030534,-23808,238.427480916031,8959,-136.778625954198,-27131,-39513.8666666667,23561,17260.8058608059,38408,28137.7289377289,7944,5819.78021978022,12552,9195.60439560439,5274.36328125,6.37697200524455,51058,144.421059829358,48392,257.207461842849,3.88791208791209,
3223040,120448713.439941,1711753516433.69,12790,-697.156626506024,59911,-129.433734939759,5638,-43.2650602409639,-15617,383.022900763359,-25088,238.427480916031,6399,-97.6946564885496,-27899,-40632.3897435897,25097,18386.0805860806,46600,34139.1941391941,22536,16509.8901098901,13064,9570.69597069597,5274.35546875,7.41569376747482,54642,162.477326662858,48392,257.207461842849,3.88791208791209,
3255808,120449713.439941,1711753517433.69,12278,-700.240963855422,60167,-123.265060240964,5638,-43.2650602409639,-15617,394.748091603053,-25856,238.427480916031,2815,-42.9770992366412,-29691,-43242.2769230769,19465,14260.0732600733,37896,27762.6373626374,62472,45767.032967033,12039,8819.78021978022,5274.35546875,8.31289610598372,57970,179.157875241095,48136,284.671532846715,3.51282051282051,
3288576,120450713.439941,1711753518433.69,12534,-703.325301204819,60423,-126.349397590361,5638,-43.2650602409639,-15617,398.656488549618,-26112,238.427480916031,5887,-89.8778625954198,-31483,-45852.1641025641,13577,9946.52014652015,21512,15759.706959707,28168,20635.8974358974,12808,9383.15018315018,5274.35546875,8.6384689031227,59250,185.555719969423,48136,284.671532846715,3.51282051282051,
3321344,120451713.439941,1711753519433.69,12790,-703.325301204819,60423,-129.433734939759,5638,-43.2650602409639,-15617,386.931297709924,-25344,238.427480916031,5631,-85.969465648855,-29691,-43242.2769230769,14089,10321.6117216117,16904,12383.8827838828,23816,17447.619047619,11784,8632.96703296703,5274.3515625,7.27161139089421,54130,159.904350835199,48392,257.207461842849,3.88791208791209,
3354112,120452713.439941,1711753520433.69,12022,-703.325301204819,60423,-120.180722891566,5382,-40.1807228915663,-15617,363.480916030534,-23808,238.427480916031,5119,-78.1526717557252,-27899,-40632.3897435897,21001,15385.347985348,29704,21761.1721611722,56584,41453.4798534799,11528,8445.42124542124,5274.3515625,6.97900155572999,53106,154.752278678203,48136,284.671532846715,3.51282051282051,
3386880,120453713.439941,1711753521433.69,12022,-703.325301204819,60423,-120.180722891566,5638,-43.2650602409639,-15617,371.297709923664,-24320,238.427480916031,5887,-89.8778625954198,-27643,-40259.5487179487,22793,16698.1684981685,38920,28512.8205128205,8712,6382.41758241758,11784,8632.96703296703,5274.3515625,7.76902479646246,55922,168.901489832884,48392,257.207461842849,3.88791208791209,
3419648,120454713.439941,1711753522433.69,12790,-703.325301204819,60423,-129.433734939759,5638,-43.2650602409639,-15617,347.847328244275,-22784,238.427480916031,15103,-230.580152671756,30725,44748.2051282051,5129,3757.50915750916,21001,15385.347985348,30728,22511.3553113553,11016,8070.32967032967,5274.3515625,6.52946199926987,51570,147.007501031486,48392,257.207461842849,3.88791208791209,
3452416,120455713.439941,1711753523433.69,12534,-700.240963855422,60167,-126.349397590361,5638,-43.2650602409639,-15617,359.572519083969,-23552,238.427480916031,14847,-226.671755725191,-27899,-40632.3897435897,44809,32827.1062271062,21512,15759.706959707,36616,26824.9084249084,11272,8257.87545787546,5274.3515625,7.69915447247408,55666,167.617565290017,48392,257.207461842849,3.88791208791209,
3485184,120456713.439941,1711753524433.69,12534,-700.240963855422,60167,-126.349397590361,5638,-43.2650602409639,-15617,363.480916030534,-23808,238.427480916031,13823,-211.038167938931,-27643,-40259.5487179487,32777,24012.4542124542,55304,40515.7509157509,26887,19697.4358974359,11272,8257.87545787546,5274.3515625,6.30018094930166,50802,143.126867745139,48392,257.207461842849,3.88791208791209,
3517952,120457713.439941,1711753525433.69,12790,-697.156626506024,59911,-129.433734939759,5126,-37.0963855421687,-15617,394.748091603053,-25856,238.427480916031,6655,-101.603053435115,-30459,-44360.8,21257,15572.8937728938,19720,14446.8864468864,32008,23449.0842490842,11272,8257.87545787546,5274.359375,7.62890879817558,55410,166.333195830808,48392,257.207461842849,3.88791208791209,
3550720,120458713.439941,1711753526433.69,12534,-697.156626506024,59911,-126.349397590361,5126,-37.0963855421687,-15617,390.839694656489,-25600,238.427480916031,7167,-109.419847328244,-27643,-40259.5487179487,23305,17073.2600732601,36616,26824.9084249084,63240,46329.6703296703,11015,8069.59706959707,5274.359375,8.17952902557823,57458,176.596169311528,48136,284.671532846715,3.51282051282051,
3583488,120459713.439941,1711753527433.69,12534,-697.156626506024,59911,-126.349397590361,5126,-37.0963855421687,-15617,375.206106870229,-24576,238.427480916031,4351,-66.4274809160305,-29691,-43242.2769230769,18697,13697.4358974359,33032,24199.2673992674,42248,30950.9157509157,11783,8632.23443223443,5274.359375,7.41570806523397,54642,162.477326662858,48392,257.207461842849,3.88791208791209,
3616256,120460713.439941,1711753528433.69,12022,-697.156626506024,59911,-120.180722891566,5382,-40.1807228915663,-15617,347.847328244275,-22784,238.427480916031,5375,-82.0610687022901,-28155,-41005.2307692308,21257,15572.8937728938,37896,27762.6373626374,51464,37702.5641025641,11783,8632.23443223443,5274.35546875,6.90495850613758,52850,153.462921415624,48136,284.671532846715,3.51282051282051,
3649024,120461713.439941,1711753529433.69,12022,-700.240963855422,60167,-120.180722891566,5126,-37.0963855421687,-15617,375.206106870229,-24576,238.427480916031,8447,-128.961832061069,-27899,-40632.3897435897,24073,17635.8974358974,44552,32638.8278388278,11016,8070.32967032967,12552,9195.60439560439,5274.35546875,7.83850079065639,56178,170.184978228763,48392,257.207461842849,3.88791208791209,
3747328,121488713.439941,1711754556433.69,12022,-700.240963855422,60167,-120.180722891566,5638,-43.2650602409639,-15617,383.022900763359,-25088,238.427480916031,13567,-207.129770992366,-28155,-41005.2307692308,23817,17448.3516483516,49416,36202.1978021978,39688,29075.4578754579,13064,9570.69597069597,5274.359375,6.97902991590132,53106,154.752278678203,48392,257.207461842849,3.88791208791209,
3780096,121489713.439941,1711754557433.69,12278,-703.325301204819,60423,-123.265060240964,5638,-43.2650602409639,-15617,363.480916030534,-23808,238.427480916031,13823,-211.038167938931,-30715,-44733.641025641,16137,11821.978021978,33288,24386.8131868132,53000,38827.8388278388,13063,9569.96336996337,5274.359375,7.34386429397656,54386,161.19108498859,48392,257.207461842849,3.88791208791209,
3812864,121490713.439941,1711754558433.69,12534,-703.325301204819,60423,-126.349397590361,6150,-49.433734939759,-15617,394.748091603053,-25856,238.427480916031,13823,-211.038167938931,-31483,-45852.1641025641,11785,8633.69963369963,15112,11071.0622710623,9992,7320.14652014652,13064,9570.69597069597,5274.3515625,6.75577680458646,52338,150.882517832861,48392,257.207461842849,3.88791208791209,
3845632,121491713.439941,1711754559433.69,12534,-700.240963855422,60167,-126.349397590361,5126,-37.0963855421687,-15617,414.290076335878,-27136,238.427480916031,8959,-136.778625954198,-28155,-41005.2307692308,18185,13322.3443223443,24072,17635.1648351648,38920,28512.8205128205,12552,9195.60439560439,5274.3515625,7.27161139089421,54130,159.904350835199,48136,284.671532846715,3.51282051282051,
3878400,121492713.439941,1711754560433.69,12534,-697.156626506024,59911,-126.349397590361,5382,-40.1807228915663,-15617,386.931297709924,-25344,238.427480916031,11263,-171.954198473282,-29435,-42869.4358974359,18185,13322.3443223443,27656,20260.8058608059,54792,40140.6593406593,12808,9383.15018315018,5274.3515625,6.90494434647434,52850,153.462921415624,48392,257.207461842849,3.88791208791209,
3911168,121493713.439941,1711754561433.69,12534,-700.240963855422,60167,-126.349397590361,5126,-37.0963855421687,-15617,410.381679389313,-26880,238.427480916031,4351,-66.4274809160305,-27643,-40259.5487179487,21513,15760.4395604396,34312,25136.9963369963,59912,43891.5750915751,12551,9194.87179487179,5274.359375,7.19903960011667,53874,158.617113885824,48136,284.671532846715,3.51282051282051,
3943936,121494713.439941,1711754562433.69,12534,-697.156626506024,59911,-126.349397590361,5126,-37.0963855421687,-15617,336.12213740458,-22016,238.427480916031,8703,-132.870229007634,-27387,-39886.7076923077,24585,18010.989010989,43272,31701.0989010989,9224,6757.50915750916,12808,9383.15018315018,5274.359375,7.62890879817558,55410,166.333195830808,48392,257.207461842849,3.88791208791209,
3976704,121495713.439941,1711754563433.69,12534,-700.240963855422,60167,-126.349397590361,5382,-40.1807228915663,-15617,379.114503816794,-24832,238.427480916031,5375,-82.0610687022901,-27387,-39886.7076923077,26121,19136.2637362637,50952,37327.4725274725,37640,27575.0915750916,13832,10133.3333333333,5274.359375,8.04440095702072,56946,174.032910837902,48136,284.671532846715,3.51282051282051,
4009472,121496713.439941,1711754564433.69,12278,-703.325301204819,60423,-123.265060240964,5126,-37.0963855421687,-15617,406.473282442748,-26624,238.427480916031,8191,-125.053435114504,-27131,-39513.8666666667,26889,19698.9010989011,56072,41078.3882783883,58632,42953.8461538461,13832,10133.3333333333,5274.359375,7.19903960011667,53874,158.617113885824,48392,257.207461842849,3.88791208791209,
4042240,121497713.439941,1711754565433.69,12022,-700.240963855422,60167,-120.180722891566,5638,-43.2650602409639,-15617,359.572519083969,-23552,238.427480916031,5887,-89.8778625954198,-31227,-45479.3230769231,17161,12572.1611721612,38664,28325.2747252747,10760,7882.78388278388,14088,10320.8791208791,5274.359375,7.05272992993133,53362,156.041088870443,48136,284.671532846715,3.51282051282051,
4075008,121498713.439941,1711754566433.69,12534,-700.240963855422,60167,-126.349397590361,5382,-40.1807228915663,-15617,390.839694656489,-25600,238.427480916031,9727,-148.503816793893,-31227,-45479.3230769231,12553,9196.336996337,19464,14259.3406593407,26120,19135.5311355311,14088,10320.8791208791,5274.359375,6.06808353547662,50034,139.240223699633,48392,257.207461842849,3.88791208791209,
4107776,121499713.439941,1711754567433.69,12534,-700.240963855422,60167,-126.349397590361,5126,-37.0963855421687,-15617,351.75572519084,-23040,238.427480916031,11775,-179.770992366412,-27643,-40259.5487179487,18697,13697.4358974359,26120,19135.5311355311,48392,35452.0146520147,13320,9758.24175824176,5274.3515625,7.19901112016862,53874,158.617113885824,48136,284.671532846715,3.51282051282051,
4140544,121500713.439941,1711754568433.69,12534,-703.325301204819,60423,-126.349397590361,5638,-43.2650602409639,-15617,355.664122137405,-23296,238.427480916031,13567,-207.129770992366,-27643,-40259.5487179487,21769,15947.9853479853,35336,25887.1794871795,61704,45204.3956043956,14343,10507.6923076923,5274.3515625,6.06805569466591,50034,139.240223699633,48392,257.207461842849,3.88791208791209,
4173312,121501713.439941,1711754569433.69,12790,-706.409638554217,60679,-129.433734939759,5382,-40.1807228915663,-15617,367.389312977099,-24064,238.427480916031,11775,-179.770992366412,-27899,-40632.3897435897,24329,17823.4432234432,45064,33013.9194139194,14088,10320.8791208791,14344,10508.4249084249,5274.3515625,7.05270152937257,53362,156.041088870443,48136,284.671532846715,3.51282051282051,
4238848,122015713.439941,1711755083433.69,12534,-700.240963855422,60167,-126.349397590361,5126,-37.0963855421687,-15617,386.931297709924,-25344,238.427480916031,11263,-171.954198473282,-27131,-39513.8666666667,45833,33577.2893772894,26632,19510.6227106227,55048,40328.2051282051,14600,10695.9706959707,5274.36328125,6.6807180211495,52082,149.591446711184,48392,257.207461842849,3.88791208791209,
4304384,122529713.439941,1711755597433.69,12278,-706.409638554217,60679,-123.265060240964,5382,-40.1807228915663,-15617,422.106870229008,-27648,238.427480916031,5887,-89.8778625954198,-30459,-44360.8,22025,16135.5311355311,23816,17447.619047619,50184,36764.8351648352,14344,10508.4249084249,5274.3671875,7.76908235355726,55922,168.901489832884,48392,257.207461842849,3.88791208791209,
4337152,122530713.439941,1711755598433.69,12790,-700.240963855422,60167,-129.433734939759,5638,-43.2650602409639,-15617,386.931297709924,-25344,238.427480916031,6143,-93.7862595419847,-31739,-46225.0051282051,13321,9758.97435897436,14088,10320.8791208791,22024,16134.7985347985,14344,10508.4249084249,5274.3671875,5.99012493404844,49778,137.943266456906,48392,257.207461842849,3.88791208791209,
4369920,122531713.439941,1711755599433.69,12534,-700.240963855422,60167,-126.349397590361,5638,-43.2650602409639,-15617,340.030534351145,-22272,238.427480916031,7423,-113.328244274809,-27899,-40632.3897435897,20489,15010.2564102564,26376,19323.0769230769,49672,36389.7435897436,14600,10695.9706959707,5274.3671875,7.19906808006478,53874,158.617113885824,48392,257.207461842849,3.88791208791209,
4402688,122532713.439941,1711755600433.69,12278,-703.325301204819,60423,-123.265060240964,5382,-40.1807228915663,-15617,379.114503816794,-24832,238.427480916031,4351,-66.4274809160305,-29691,-43242.2769230769,17673,12947.2527472527,26632,19510.6227106227,54536,39953.1135531136,14600,10695.9706959707,5274.35546875,7.69916884393177,55666,167.617565290017,48136,284.671532846715,3.51282051282051,
4435456,122533713.439941,1711755601433.69,12022,-697.156626506024,59911,-120.180722891566,5382,-40.1807228915663,-15617,418.198473282443,-27392,238.427480916031,8703,-132.870229007634,-27643,-40259.5487179487,21257,15572.8937728938,35336,25887.1794871795,63496,46517.2161172161,14343,10507.6923076923,5274.35546875,6.97901573581565,53106,154.752278678203,48392,257.207461842849,3.88791208791209,
4468224,122534713.439941,1711755602433.69,12278,-700.240963855422,60167,-123.265060240964,5126,-37.0963855421687,-15617,371.297709923664,-24320,238.427480916031,8703,-132.870229007634,-27387,-39886.7076923077,24585,18010.989010989,43528,31888.6446886447,10504,7695.23809523809,14088,10320.8791208791,5274.35546875,6.60525000818452,51826,148.2997788902,48136,284.671532846715,3.51282051282051,
4500992,122535713.439941,1711755603433.69,12022,-697.156626506024,59911,-120.180722891566,5382,-40.1807228915663,-15617,422.106870229008,-27648,238.427480916031,11263,-171.954198473282,-27387,-39886.7076923077,26121,19136.2637362637,50952,37327.4725274725,37896,27762.6373626374,14088,10320.8791208791,5274.3515625,6.68067573002759,52082,149.591446711184,48392,257.207461842849,3.88791208791209,
4533760,122536713.439941,1711755604433.69,12278,-697.156626506024,59911,-123.265060240964,5382,-40.1807228915663,-15617,343.93893129771,-22528,238.427480916031,11007,-168.045801526718,-25595,-37276.8205128205,29961,21949.4505494505,62472,45767.032967033,7432,5444.68864468864,14601,10696.7032967033,5274.3515625,6.37692997391146,51058,144.421059829358,48136,284.671532846715,3.51282051282051,
4566528,122537713.439941,1711755605433.69,12534,-700.240963855422,60167,-126.349397590361,5894,-46.3493975903614,-15617,379.114503816794,-24832,238.427480916031,15103,-230.580152671756,31237,45493.8871794872,10249,7508.42490842491,43785,32076.9230769231,30728,22511.3553113553,13576,9945.78754578755,5274.3515625,7.69915447247408,55666,167.617565290017,48392,257.207461842849,3.88791208791209,
4599296,122538713.439941,1711755606433.69,13046,-697.156626506024,59911,-132.518072289157,5638,-43.2650602409639,-15617,347.847328244275,-22784,238.427480916031,12031,-183.679389312977,-31483,-45852.1641025641,37129,27200.7326007326,10760,7882.78388278388,5384,3944.32234432234,13576,9945.78754578755,5274.35546875,6.90495850613758,52850,153.462921415624,48136,284.671532846715,3.51282051282051,
4632064,122539713.439941,1711755607433.69,12534,-697.156626506024,59911,-126.349397590361,6150,-49.433734939759,-15617,363.480916030534,-23808,238.427480916031,10239,-156.320610687023,-29947,-43615.1179487179,25353,18573.6263736264,36616,26824.9084249084,56584,41453.4798534799,13831,10132.6007326007,5274.35546875,6.30019493755478,50802,143.126867745139,48392,257.207461842849,3.88791208791209,
4664832,122540713.439941,1711755608433.69,12534,-697.156626506024,59911,-126.349397590361,5638,-43.2650602409639,-15617,426.015267175572,-27904,238.427480916031,5631,-85.969465648855,-27899,-40632.3897435897,26121,19136.2637362637,48136,35264.4688644689,22280,16322.3443223443,12552,9195.60439560439,5274.35546875,6.30019493755478,50802,143.126867745139,48136,284.671532846715,3.51282051282051,
4697600,122541713.439941,1711755609433.69,12534,-703.325301204819,60423,-126.349397590361,5382,-40.1807228915663,-15617,379.114503816794,-24832,238.427480916031,6655,-101.603053435115,-27899,-40632.3897435897,26377,19323.8095238095,54536,39953.1135531136,49672,36389.7435897436,12040,8820.51282051282,5274.36328125,7.62892315157226,55410,166.333195830808,48392,257.207461842849,3.88791208791209,
4730368,122542713.439941,1711755610433.69,12534,-703.325301204819,60423,-126.349397590361,5638,-43.2650602409639,-15617,363.480916030534,-23808,238.427480916031,6399,-97.6946564885496,30725,44748.2051282051,6665,4882.78388278388,32265,23637.3626373626,4872,3569.23076923077,11785,8633.69963369963,5274.36328125,7.34387857271046,54386,161.19108498859,48392,257.207461842849,3.88791208791209,
4763136,122543713.439941,1711755611433.69,12022,-700.240963855422,60167,-120.180722891566,5382,-40.1807228915663,-15617,441.648854961832,-28928,238.427480916031,6143,-93.7862595419847,-27387,-39886.7076923077,45833,33577.2893772894,28680,21010.989010989,8,5.86080586080586,11529,8446.15384615385,5274.36328125,7.48718085017577,54898,163.763085894523,48392,257.207461842849,3.88791208791209,
4795904,122544713.439941,1711755612433.69,12278,-703.325301204819,60423,-123.265060240964,5382,-40.1807228915663,-15617,406.473282442748,-26624,238.427480916031,7167,-109.419847328244,30981,45121.0461538461,16393,12009.5238095238,44553,32639.5604395604,30216,22136.2637362637,10504,7695.23809523809,5274.36328125,7.19905384009071,53874,158.617113885824,48136,284.671532846715,3.51282051282051,
4828672,122545713.439941,1711755613433.69,12022,-703.325301204819,60423,-120.180722891566,5382,-40.1807228915663,-15617,390.839694656489,-25600,238.427480916031,11519,-175.862595419847,-30971,-45106.482051282,42505,31139.1941391941,24072,17635.1648351648,44040,32263.7362637363,10760,7882.78388278388,5274.36328125,7.34387857271046,54386,161.19108498859,48392,257.207461842849,3.88791208791209,
4861440,122546713.439941,1711755614433.69,12278,-703.325301204819,60423,-123.265060240964,5638,-43.2650602409639,-15617,359.572519083969,-23552,238.427480916031,7935,-121.145038167939,-31995,-46597.8461538461,22537,16510.6227106227,34568,25324.5421245421,59656,43704.0293040293,9991,7319.41391941392,5274.36328125,5.91182630165175,49522,136.645576685202,48392,257.207461842849,3.88791208791209,
4894208,122547713.439941,1711755615433.69,12534,-703.325301204819,60423,-126.349397590361,5126,-37.0963855421687,-15617,367.389312977099,-24064,238.427480916031,13567,-207.129770992366,-27899,-40632.3897435897,24841,18198.5347985348,44808,32826.3736263736,15112,11071.0622710623,10504,7695.23809523809,5274.359375,6.83056282868903,52594,152.173005207607,48392,257.207461842849,3.88791208791209,
4926976,122548713.439941,1711755616433.69,12022,-697.156626506024,59911,-120.180722891566,5126,-37.0963855421687,-15617,367.389312977099,-24064,238.427480916031,11775,-179.770992366412,-29691,-43242.2769230769,19209,14072.5274725275,38408,28137.7289377289,63496,46517.2161172161,10247,7506.95970695971,5274.359375,7.34386429397656,54386,161.19108498859,48392,257.207461842849,3.88791208791209,
4959744,122549713.439941,1711755617433.69,12534,-700.240963855422,60167,-126.349397590361,5638,-43.2650602409639,-15617,355.664122137405,-23296,238.427480916031,8703,-132.870229007634,-31739,-46225.0051282051,11785,8633.69963369963,17160,12571.4285714286,18696,13696.7032967033,10504,7695.23809523809,5274.359375,6.68070392410885,52082,149.591446711184,48392,257.207461842849,3.88791208791209,
4992512,122550713.439941,1711755618433.69,12278,-700.240963855422,60167,-123.265060240964,5382,-40.1807228915663,-15617,379.114503816794,-24832,238.427480916031,6911,-105.511450381679,-27899,-40632.3897435897,19721,14447.619047619,27400,20073.2600732601,51720,37890.1098901099,10504,7695.23809523809,5274.3671875,7.97622243063483,56690,172.750680519605,48392,257.207461842849,3.88791208791209,
5025280,122551713.439941,1711755619433.69,12790,-700.240963855422,60167,-129.433734939759,5894,-46.3493975903614,-15617,418.198473282443,-27392,238.427480916031,6655,-101.603053435115,30725,44748.2051282051,3849,2819.78021978022,15113,11071.7948717949,25352,18572.8937728938,8968,6569.96336996337,5274.3671875,7.27166842878078,54130,159.904350835199,48136,284.671532846715,3.51282051282051,
5058048,122552713.439941,1711755620433.69,12278,-703.325301204819,60423,-123.265060240964,5638,-43.2650602409639,-15617,383.022900763359,-25088,238.427480916031,5631,-85.969465648855,-27387,-39886.7076923077,44553,32639.5604395604,17416,12758.9743589744,23560,17260.0732600733,8968,6569.96336996337,5274.3671875,7.90759225839168,56434,171.468039018049,48392,257.207461842849,3.88791208791209,
5090816,122553713.439941,1711755621433.69,12278,-697.156626506024,59911,-123.265060240964,5638,-43.2650602409639,-15617,363.480916030534,-23808,238.427480916031,5375,-82.0610687022901,-29179,-42496.5948717949,29705,21761.9047619048,46088,33764.1025641026,23816,17447.619047619,9224,6757.50915750916,5274.359375,8.37893501449084,58226,180.438164172323,48136,284.671532846715,3.51282051282051,
5123584,122554713.439941,1711755622433.69,12278,-703.325301204819,60423,-123.265060240964,5638,-43.2650602409639,-15617,398.656488549618,-26112,238.427480916031,8191,-125.053435114504,-31483,-45852.1641025641,18441,13509.8901098901,35080,25699.6336996337,55048,40328.2051282051,10503,7694.50549450549,5274.359375,7.05272992993133,53362,156.041088870443,48392,257.207461842849,3.88791208791209,
5221888,123069713.439941,1711756137433.69,12022,-703.325301204819,60423,-120.180722891566,5382,-40.1807228915663,-15617,394.748091603053,-25856,238.427480916031,9471,-144.595419847328,-27387,-39886.7076923077,25865,18948.7179487179,51464,37702.5641025641,38920,28512.8205128205,11016,8070.32967032967,5274.35546875,6.22312988619579,50546,141.832008109172,48136,284.671532846715,3.51282051282051,
5254656,123070713.439941,1711756138433.69,12790,-703.325301204819,60423,-129.433734939759,5382,-40.1807228915663,-15617,328.30534351145,-21504,238.427480916031,10495,-160.229007633588,-27899,-40632.3897435897,26121,19136.2637362637,54280,39765.5677655678,51464,37702.5641025641,11016,8070.32967032967,5274.35546875,7.76903918573613,55922,168.901489832884,48136,284.671532846715,3.51282051282051,
5287424,123071713.439941,1711756139433.69,12790,-703.325301204819,60423,-129.433734939759,5638,-43.2650602409639,-15617,414.290076335878,-27136,238.427480916031,12287,-187.587786259542,30725,44748.2051282051,6665,4882.78388278388,32265,23637.3626373626,5384,3944.32234432234,11273,8258.60805860806,5274.3671875,7.12609648828976,53618,157.329363533413,48392,257.207461842849,3.88791208791209,
5320192,123072713.439941,1711756140433.69,12278,-700.240963855422,60167,-123.265060240964,5638,-43.2650602409639,-15617,347.847328244275,-22784,238.427480916031,8191,-125.053435114504,-27643,-40259.5487179487,44041,32264.4688644689,22280,16322.3443223443,50952,37327.4725274725,12040,8820.51282051282,5274.3671875,7.41573666075231,54642,162.477326662858,48392,257.207461842849,3.88791208791209,
5352960,123073713.439941,1711756141433.69,12278,-700.240963855422,60167,-123.265060240964,5382,-40.1807228915663,-15617,371.297709923664,-24320,238.427480916031,6399,-97.6946564885496,-31227,-45479.3230769231,24329,17823.4432234432,39432,28887.9120879121,9992,7320.14652014652,12296,9008.05860805861,5274.3671875,7.05275833049015,53362,156.041088870443,48392,257.207461842849,3.88791208791209,
5385728,123074713.439941,1711756142433.69,12022,-700.240963855422,60167,-120.180722891566,5638,-43.2650602409639,-15617,394.748091603053,-25856,238.427480916031,9215,-140.687022900763,-30715,-44733.641025641,16649,12197.0695970696,29448,21573.6263736264,55048,40328.2051282051,12552,9195.60439560439,5274.3515625,6.52946199926987,51570,147.007501031486,48392,257.207461842849,3.88791208791209,
5418496,123075713.439941,1711756143433.69,12278,-697.156626506024,59911,-123.265060240964,5382,-40.1807228915663,-15617,394.748091603053,-25856,238.427480916031,3839,-58.6106870229008,-27387,-39886.7076923077,22537,16510.6227106227,37384,27387.5457875458,4360,3194.13919413919,13320,9758.24175824176,5274.3515625,7.97616466569245,56690,172.750680519605,48392,257.207461842849,3.88791208791209,
5451264,123076713.439941,1711756144433.69,12534,-700.240963855422,60167,-126.349397590361,5382,-40.1807228915663,-15617,379.114503816794,-24832,238.427480916031,5119,-78.1526717557252,-27899,-40632.3897435897,24585,18010.989010989,44552,32638.8278388278,15368,11258.6080586081,12808,9383.15018315018,5274.3515625,7.62888009138227,55410,166.333195830808,48136,284.671532846715,3.51282051282051,
5484032,123077713.439941,1711756145433.69,12534,-703.325301204819,60423,-126.349397590361,5638,-43.2650602409639,-15617,340.030534351145,-22272,238.427480916031,9471,-144.595419847328,-26875,-39141.0256410256,27913,20449.0842490842,55560,40703.2967032967,50696,37139.9267399267,13576,9945.78754578755,5274.34765625,6.75576268644744,52338,150.882517832861,48392,257.207461842849,3.88791208791209,
5516800,123078713.439941,1711756146433.69,12534,-700.240963855422,60167,-126.349397590361,5638,-43.2650602409639,-15617,359.572519083969,-23552,238.427480916031,11007,-168.045801526718,-27131,-39513.8666666667,27913,20449.0842490842,60168,44079.1208791209,7432,5444.68864468864,13577,9946.52014652015,5274.34765625,7.41566517195659,54642,162.477326662858,48136,284.671532846715,3.51282051282051,
5549568,123079713.439941,1711756147433.69,12534,-697.156626506024,59911,-126.349397590361,5638,-43.2650602409639,-15617,371.297709923664,-24320,238.427480916031,8703,-132.870229007634,-27387,-39886.7076923077,27401,20073.9926739927,61960,45391.9413919414,16136,11821.2454212454,13577,9946.52014652015,5274.34765625,5.75432388996289,49010,134.047928782605,48392,257.207461842849,3.88791208791209,
5582336,123080713.439941,1711756148433.69,12278,-703.325301204819,60423,-123.265060240964,5638,-43.2650602409639,-15617,355.664122137405,-23296,238.427480916031,9471,-144.595419847328,-27387,-39886.7076923077,27145,19886.4468864469,60936,44641.7582417582,15624,11446.1538461538,12553,9196.336996337,5274.36328125,6.22315781789265,50546,141.832008109172,48136,284.671532846715,3.51282051282051,
5615104,123081713.439941,1711756149433.69,12534,-697.156626506024,59911,-126.349397590361,5382,-40.1807228915663,-15617,386.931297709924,-25344,238.427480916031,13567,-207.129770992366,-30459,-44360.8,19465,14260.0732600733,43784,32076.1904761905,33032,24199.2673992674,11528,8445.42124542124,5274.36328125,7.19905384009071,53874,158.617113885824,48392,257.207461842849,3.88791208791209,
5713408,124108713.439941,1711757176433.69,12278,-703.325301204819,60423,-123.265060240964,5382,-40.1807228915663,-15617,426.015267175572,-27904,238.427480916031,5375,-82.0610687022901,-29691,-43242.2769230769,15369,11259.3406593407,21000,15384.6153846154,40968,30013.1868131868,11528,8445.42124542124,5274.34375,7.76899601791517,55922,168.901489832884,48136,284.671532846715,3.51282051282051,
5746176,124109713.439941,1711757177433.69,12534,-697.156626506024,59911,-126.349397590361,5126,-37.0963855421687,-15617,371.297709923664,-24320,238.427480916031,7167,-109.419847328244,-27643,-40259.5487179487,20233,14822.7106227106,30984,22698.9010989011,8,5.86080586080586,11273,8258.60805860806,5274.34375,7.97613578322137,56690,172.750680519605,48392,257.207461842849,3.88791208791209,
5811712,124623713.439941,1711757691433.69,12534,-700.240963855422,60167,-126.349397590361,5382,-40.1807228915663,-15617,343.93893129771,-22528,238.427480916031,6143,-93.7862595419847,-27899,-40632.3897435897,23561,17260.8058608059,40712,29825.641025641,1800,1318.68131868132,9992,7320.14652014652,5274.34765625,6.75576268644744,52338,150.882517832861,48392,257.207461842849,3.88791208791209,
5844480,124624713.439941,1711757692433.69,12534,-700.240963855422,60167,-126.349397590361,5382,-40.1807228915663,-15617,340.030534351145,-22272,238.427480916031,8447,-128.961832061069,-27387,-39886.7076923077,25353,18573.6263736264,49416,36202.1978021978,30216,22136.2637362637,10504,7695.23809523809,5274.34765625,7.19899688019463,53874,158.617113885824,48392,257.207461842849,3.88791208791209,
5877248,124625713.439941,1711757693433.69,12022,-700.240963855422,60167,-120.180722891566,6150,-49.433734939759,-15617,363.480916030534,-23808,238.427480916031,10239,-156.320610687023,-30715,-44733.641025641,17161,12572.1611721612,35848,26262.2710622711,57608,42203.663003663,11271,8257.14285714286,5274.3515625,6.22311592034738,50546,141.832008109172,48392,257.207461842849,3.88791208791209,
5910016,124626713.439941,1711757694433.69,12278,-703.325301204819,60423,-123.265060240964,5638,-43.2650602409639,-15617,410.381679389313,-26880,238.427480916031,9983,-152.412213740458,-31995,-46597.8461538461,11785,8633.69963369963,16136,11821.2454212454,14344,10508.4249084249,11784,8632.96703296703,5274.3515625,7.55820633793298,55154,165.048372449227,48392,257.207461842849,3.88791208791209,
5942784,124627713.439941,1711757695433.69,12790,-706.409638554217,60679,-129.433734939759,5638,-43.2650602409639,-15617,371.297709923664,-24320,238.427480916031,12287,-187.587786259542,-30715,-44733.641025641,10761,7883.51648351648,5384,3944.32234432234,49672,36389.7435897436,11527,8444.68864468864,5274.3515625,7.12603960731882,53618,157.329363533413,48392,257.207461842849,3.88791208791209,
5975552,124628713.439941,1711757696433.69,12278,-697.156626506024,59911,-123.265060240964,5382,-40.1807228915663,-15617,371.297709923664,-24320,238.427480916031,12543,-191.496183206107,-29179,-42496.5948717949,15113,11071.7948717949,12808,9383.15018315018,520,380.952380952381,11016,8070.32967032967,5274.359375,6.22314385204421,50546,141.832008109172,48392,257.207461842849,3.88791208791209,
6008320,124629713.439941,1711757697433.69,12534,-703.325301204819,60423,-126.349397590361,5382,-40.1807228915663,-15617,363.480916030534,-23808,238.427480916031,7423,-113.328244274809,-31739,-46225.0051282051,10249,7508.42490842491,1800,1318.68131868132,35592,26074.7252747253,10247,7506.95970695971,5274.359375,6.52949010762911,51570,147.007501031486,48136,284.671532846715,3.51282051282051,
6041088,124630713.439941,1711757698433.69,12534,-697.156626506024,59911,-126.349397590361,5382,-40.1807228915663,-15617,363.480916030534,-23808,238.427480916031,10495,-160.229007633588,-30459,-44360.8,12041,8821.24542124542,3848,2819.04761904762,35080,25699.6336996337,10503,7694.50549450549,5274.359375,7.41570806523397,54642,162.477326662858,48392,257.207461842849,3.88791208791209,
6073856,124631713.439941,1711757699433.69,12278,-700.240963855422,60167,-123.265060240964,5382,-40.1807228915663,-15617,383.022900763359,-25088,238.427480916031,7679,-117.236641221374,-27131,-39513.8666666667,20745,15197.8021978022,24072,17635.1648351648,29192,21386.0805860806,11272,8257.87545787546,5274.35546875,6.68068982706821,52082,149.591446711184,48136,284.671532846715,3.51282051282051,
6106624,124632713.439941,1711757700433.69,12022,-700.240963855422,60167,-120.180722891566,5638,-43.2650602409639,-15617,402.564885496183,-26368,238.427480916031,7167,-109.419847328244,-28155,-41005.2307692308,22537,16510.6227106227,34824,25512.0879120879,54024,39578.021978022,11783,8632.23443223443,5274.35546875,7.4871522170842,54898,163.763085894523,48392,257.207461842849,3.88791208791209,
6139392,124633713.439941,1711757701433.69,12022,-703.325301204819,60423,-120.180722891566,5126,-37.0963855421687,-15617,406.473282442748,-26624,238.427480916031,6911,-105.511450381679,-30715,-44733.641025641,15881,11634.4322344322,25352,18572.8937728938,38664,28325.2747252747,11784,8632.96703296703,5274.35546875,6.60525000818452,51826,148.2997788902,48136,284.671532846715,3.51282051282051,
6204928,125147713.439941,1711758215433.69,12278,-703.325301204819,60423,-123.265060240964,5382,-40.1807228915663,-15617,363.480916030534,-23808,238.427480916031,12031,-183.679389312977,-31739,-46225.0051282051,8201,6008.05860805861,60936,44641.7582417582,35079,25698.9010989011,11528,8445.42124542124,5274.35546875,7.90754898589906,56434,171.468039018049,48136,284.671532846715,3.51282051282051,
6237696,125148713.439941,1711758216433.69,11766,-700.240963855422,60167,-117.096385542169,5382,-40.1807228915663,-15617,386.931297709924,-25344,238.427480916031,3071,-46.8854961832061,-27643,-40259.5487179487,16905,12384.6153846154,12296,9008.05860805861,9992,7320.14652014652,11016,8070.32967032967,5274.35546875,6.7557909227255,52338,150.882517832861,48392,257.207461842849,3.88791208791209,
6270464,125149713.439941,1711758217433.69,12278,-700.240963855422,60167,-123.265060240964,5382,-40.1807228915663,-15617,332.213740458015,-21760,238.427480916031,11775,-179.770992366412,-28155,-41005.2307692308,20745,15197.8021978022,27400,20073.2600732601,49416,36202.1978021978,12040,8820.51282051282,5274.35546875,5.91179855339428,49522,136.645576685202,48136,284.671532846715,3.51282051282051,
6303232,125150713.439941,1711758218433.69,12534,-697.156626506024,59911,-126.349397590361,5638,-43.2650602409639,-15617,371.297709923664,-24320,238.427480916031,8191,-125.053435114504,-30459,-44360.8,16905,12384.6153846154,25096,18385.347985348,51464,37702.5641025641,11784,8632.96703296703,5274.35546875,7.12605382756153,53618,157.329363533413,48392,257.207461842849,3.88791208791209,
6336000,125151713.439941,1711758219433.69,12534,-700.240963855422,60167,-126.349397590361,5894,-46.3493975903614,-15617,386.931297709924,-25344,238.427480916031,11775,-179.770992366412,30725,44748.2051282051,2313,1694.50549450549,9481,6945.78754578755,6664,4882.05128205128,12040,8820.51282051282,5274.35546875,7.19902536014264,53874,158.617113885824,48392,257.207461842849,3.88791208791209,
6368768,125152713.439941,1711758220433.69,12790,-697.156626506024,59911,-129.433734939759,5126,-37.0963855421687,-15617,386.931297709924,-25344,238.427480916031,10239,-156.320610687023,-27643,-40259.5487179487,42249,30951.6483516483,9480,6945.05494505494,61192,44829.304029304,11015,8069.59706959707,5274.359375,7.48716653362997,54898,163.763085894523,48392,257.207461842849,3.88791208791209,
6401536,125153713.439941,1711758221433.69,12534,-700.240963855422,60167,-126.349397590361,5382,-40.1807228915663,-15617,347.847328244275,-22784,238.427480916031,10751,-164.137404580153,-30459,-44360.8,25865,18948.7179487179,36104,26449.8168498168,51464,37702.5641025641,11015,8069.59706959707,5274.359375,7.27163990983746,54130,159.904350835199,48392,257.207461842849,3.88791208791209,
6434304,125154713.439941,1711758222433.69,12534,-703.325301204819,60423,-126.349397590361,5382,-40.1807228915663,-15617,371.297709923664,-24320,238.427480916031,10239,-156.320610687023,-31483,-45852.1641025641,16649,12197.0695970696,28168,20635.8974358974,44296,32451.2820512821,11784,8632.96703296703,5274.359375,6.83056282868903,52594,152.173005207607,48392,257.207461842849,3.88791208791209,
6467072,125155713.439941,1711758223433.69,13046,-703.325301204819,60423,-132.518072289157,5382,-40.1807228915663,-15617,367.389312977099,-24064,238.427480916031,11519,-175.862595419847,-27387,-39886.7076923077,22281,16323.0769230769,38152,27950.1831501831,4616,3381.68498168498,11784,8632.96703296703,5274.35546875,6.83054868967521,52594,152.173005207607,48392,257.207461842849,3.88791208791209,
6532608,125669713.439941,1711758737433.69,12278,-703.325301204819,60423,-123.265060240964,5638,-43.2650602409639,-15617,359.572519083969,-23552,238.427480916031,9471,-144.595419847328,-27643,-40259.5487179487,21769,15947.9853479853,38664,28325.2747252747,57864,42391.2087912088,12295,9007.32600732601,5274.35546875,6.83054868967521,52594,152.173005207607,48392,257.207461842849,3.88791208791209,
6598144,126183713.439941,1711759251433.69,12022,-700.240963855422,60167,-120.180722891566,5638,-43.2650602409639,-15617,386.931297709924,-25344,238.427480916031,8959,-136.778625954198,-28155,-41005.2307692308,23049,16885.7142857143,44552,32638.8278388278,15624,11446.1538461538,11272,8257.87545787546,5274.34765625,6.90493018681112,52850,153.462921415624,48648,234.57638769548,4.26300366300366,
6630912,126184713.439941,1711759252433.69,12278,-694.072289156627,59655,-123.265060240964,5382,-40.1807228915663,-15617,379.114503816794,-24832,238.427480916031,10495,-160.229007633588,-27387,-39886.7076923077,25097,18386.0805860806,49416,36202.1978021978,33288,24386.8131868132,12040,8820.51282051282,5274.34765625,7.62886573798564,55410,166.333195830808,48136,284.671532846715,3.51282051282051,
6663680,126185713.439941,1711759253433.69,12534,-700.240963855422,60167,-126.349397590361,5382,-40.1807228915663,-15617,336.12213740458,-22016,238.427480916031,6399,-97.6946564885496,-30715,-44733.641025641,22793,16698.1684981685,56584,41453.4798534799,7688,5632.23443223443,11273,8258.60805860806,5274.359375,6.45338656271743,51314,145.714599396085,48392,257.207461842849,3.88791208791209,
6696448,126186713.439941,1711759254433.69,12278,-700.240963855422,60167,-123.265060240964,5638,-43.2650602409639,-15617,371.297709923664,-24320,238.427480916031,8703,-132.870229007634,-31739,-46225.0051282051,13065,9571.42857142857,28936,21198.5347985348,3080,2256.41025641026,11529,8446.15384615385,5274.359375,6.37695799480017,51058,144.421059829358,48136,284.671532846715,3.51282051282051,
6729216,126187713.439941,1711759255433.69,12790,-697.156626506024,59911,-129.433734939759,5382,-40.1807228915663,-15617,355.664122137405,-23296,238.427480916031,13567,-207.129770992366,-29947,-43615.1179487179,15113,11071.7948717949,22536,16509.8901098901,48648,35639.5604395604,11784,8632.96703296703,5274.359375,6.22314385204421,50546,141.832008109172,48392,257.207461842849,3.88791208791209,
6761984,126188713.439941,1711759256433.69,12534,-700.240963855422,60167,-126.349397590361,5638,-43.2650602409639,-15617,336.12213740458,-22016,238.427480916031,9215,-140.687022900763,-29179,-42496.5948717949,16905,12384.6153846154,23048,16884.9816849817,46088,33764.1025641026,12296,9008.05860805861,5274.34765625,7.62886573798564,55410,166.333195830808,48136,284.671532846715,3.51282051282051,
6794752,126189713.439941,1711759257433.69,12534,-700.240963855422,60167,-126.349397590361,5638,-43.2650602409639,-15617,347.847328244275,-22784,238.427480916031,6143,-93.7862595419847,-27643,-40259.5487179487,21001,15385.347985348,32264,23636.63003663,4360,3194.13919413919,11785,8633.69963369963,5274.34765625,6.68066163298699,52082,149.591446711184,48392,257.207461842849,3.88791208791209,
6827520,126190713.439941,1711759258433.69,12534,-694.072289156627,59655,-126.349397590361,5894,-46.3493975903614,-15617,379.114503816794,-24832,238.427480916031,8447,-128.961832061069,-27131,-39513.8666666667,24841,18198.5347985348,44040,32263.7362637363,28680,21010.989010989,11528,8445.42124542124,5274.34765625,6.83052041164762,52594,152.173005207607,48392,257.207461842849,3.88791208791209,
6860288,126191713.439941,1711759259433.69,12022,-697.156626506024,59911,-120.180722891566,5382,-40.1807228915663,-15617,379.114503816794,-24832,238.427480916031,10495,-160.229007633588,-27131,-39513.8666666667,26633,19511.3553113553,51464,37702.5641025641,43016,31513.5531135531,11784,8632.96703296703,5274.35546875,7.27162565036582,54130,159.904350835199,48392,257.207461842849,3.88791208791209,
6925824,126705713.439941,1711759773433.69,12278,-706.409638554217,60679,-123.265060240964,5382,-40.1807228915663,-15617,398.656488549618,-26112,238.427480916031,8703,-132.870229007634,-30203,-43987.958974359,18697,13697.4358974359,39688,29075.4578754579,11272,8257.87545787546,12296,9008.05860805861,5274.35546875,7.12605382756153,53618,157.329363533413,48392,257.207461842849,3.88791208791209,
6958592,126706713.439941,1711759774433.69,12790,-703.325301204819,60423,-129.433734939759,5638,-43.2650602409639,-15617,359.572519083969,-23552,238.427480916031,6655,-101.603053435115,30469,44375.3641025641,4617,3382.41758241758,21001,15385.347985348,31496,23073.9926739927,12040,8820.51282051282,5274.35546875,7.69916884393177,55666,167.617565290017,48392,257.207461842849,3.88791208791209,
6991360,126707713.439941,1711759775433.69,12278,-697.156626506024,59911,-123.265060240964,5382,-40.1807228915663,-15617,340.030534351145,-22272,238.427480916031,8959,-136.778625954198,-27899,-40632.3897435897,44553,32639.5604395604,19720,14446.8864468864,33288,24386.8131868132,11272,8257.87545787546,5274.35546875,7.76903918573613,55922,168.901489832884,48136,284.671532846715,3.51282051282051,
7024128,126708713.439941,1711759776433.69,12278,-703.325301204819,60423,-123.265060240964,5638,-43.2650602409639,-15617,402.564885496183,-26368,238.427480916031,12799,-195.404580152672,-28411,-41378.0717948718,31753,23262.2710622711,51208,37515.0183150183,41736,30575.8241758242,12040,8820.51282051282,5274.35546875,6.97901573581565,53106,154.752278678203,48392,257.207461842849,3.88791208791209,
7056896,126709713.439941,1711759777433.69,12278,-703.325301204819,60423,-123.265060240964,5382,-40.1807228915663,-15617,371.297709923664,-24320,238.427480916031,6655,-101.603053435115,-27899,-40632.3897435897,29193,21386.8131868132,60680,44454.2124542125,5384,3944.32234432234,12553,9196.336996337,5274.34765625,6.30016696104857,50802,143.126867745139,48392,257.207461842849,3.88791208791209,
7089664,126710713.439941,1711759778433.69,12278,-697.156626506024,59911,-123.265060240964,5894,-46.3493975903614,-15617,343.93893129771,-22528,238.427480916031,5887,-89.8778625954198,-27387,-39886.7076923077,27913,20449.0842490842,62216,45579.4871794872,17928,13134.0659340659,12809,9383.88278388278,5274.34765625,7.83847197697036,56178,170.184978228763,48392,257.207461842849,3.88791208791209,
7155200,127224713.439941,1711760292433.69,12534,-700.240963855422,60167,-126.349397590361,5638,-43.2650602409639,-15617,371.297709923664,-24320,238.427480916031,6911,-105.511450381679,-27387,-39886.7076923077,27145,19886.4468864469,61192,44829.304029304,19208,14071.7948717949,12809,9383.88278388278,5274.359375,7.12606804780425,53618,157.329363533413,48392,257.207461842849,3.88791208791209,
7187968,127225713.439941,1711760293433.69,12278,-703.325301204819,60423,-123.265060240964,5382,-40.1807228915663,-15617,390.839694656489,-25600,238.427480916031,8447,-128.961832061069,-30715,-44733.641025641,17673,12947.2527472527,40968,30013.1868131868,22280,16322.3443223443,13064,9570.69597069597,5274.359375,7.69918321538948,55666,167.617565290017,48136,284.671532846715,3.51282051282051,
7220736,127226713.439941,1711760294433.69,12790,-706.409638554217,60679,-129.433734939759,5638,-43.2650602409639,-15617,375.206106870229,-24576,238.427480916031,9215,-140.687022900763,-31483,-45852.1641025641,12297,9008.79120879121,18696,13696.7032967033,28168,20635.8974358974,13064,9570.69597069597,5274.359375,6.75580504086455,52338,150.882517832861,48392,257.207461842849,3.88791208791209,
7253504,127227713.439941,1711760295433.69,12534,-703.325301204819,60423,-126.349397590361,5382,-40.1807228915663,-15617,367.389312977099,-24064,238.427480916031,13055,-199.312977099237,-27643,-40259.5487179487,18697,13697.4358974359,25864,18947.9853479853,48904,35827.1062271062,12808,9383.15018315018,5274.3515625,7.41567946971569,54642,162.477326662858,48136,284.671532846715,3.51282051282051,
7286272,127228713.439941,1711760296433.69,12534,-703.325301204819,60423,-126.349397590361,5638,-43.2650602409639,-15617,394.748091603053,-25856,238.427480916031,10495,-160.229007633588,-28155,-41005.2307692308,21257,15572.8937728938,35080,25699.6336996337,61448,45016.8498168498,13575,9945.05494505494,5274.3515625,7.27161139089421,54130,159.904350835199,48392,257.207461842849,3.88791208791209,
7319040,127229713.439941,1711760297433.69,12278,-697.156626506024,59911,-123.265060240964,5894,-46.3493975903614,-15617,367.389312977099,-24064,238.427480916031,8447,-128.961832061069,-27643,-40259.5487179487,22793,16698.1684981685,40968,30013.1868131868,520,380.952380952381,13832,10133.3333333333,5274.3515625,7.3438357365088,54386,161.19108498859,48136,284.671532846715,3.51282051282051,
7351808,127230713.439941,1711760298433.69,12278,-700.240963855422,60167,-123.265060240964,5638,-43.2650602409639,-15617,351.75572519084,-23040,238.427480916031,8703,-132.870229007634,-27387,-39886.7076923077,25097,18386.0805860806,47880,35076.9230769231,26120,19135.5311355311,12552,9195.60439560439,5274.359375,6.52949010762911,51570,147.007501031486,48392,257.207461842849,3.88791208791209,
7384576,127231713.439941,1711760299433.69,12278,-700.240963855422,60167,-123.265060240964,5126,-37.0963855421687,-15617,394.748091603053,-25856,238.427480916031,10239,-156.320610687023,-27387,-39886.7076923077,26121,19136.2637362637,52744,38640.293040293,45320,33201.4652014652,12552,9195.60439560439,5274.359375,7.62890879817558,55410,166.333195830808,48136,284.671532846715,3.51282051282051,
7417344,127232713.439941,1711760300433.69,12022,-700.240963855422,60167,-120.180722891566,5126,-37.0963855421687,-15617,394.748091603053,-25856,238.427480916031,6911,-105.511450381679,-27643,-40259.5487179487,24841,18198.5347985348,52488,38452.7472527472,49672,36389.7435897436,13064,9570.69597069597,5274.359375,6.68070392410885,52082,149.591446711184,48392,257.207461842849,3.88791208791209,
7450112,127233713.439941,1711760301433.69,12278,-706.409638554217,60679,-123.265060240964,5126,-37.0963855421687,-15617,406.473282442748,-26624,238.427480916031,7423,-113.328244274809,-29179,-42496.5948717949,21257,15572.8937728938,46088,33764.1025641026,29960,21948.7179487179,13576,9945.78754578755,5274.3515625,6.75577680458646,52338,150.882517832861,48136,284.671532846715,3.51282051282051,
7482880,127234713.439941,1711760302433.69,12534,-709.493975903614,60935,-126.349397590361,5894,-46.3493975903614,-15617,394.748091603053,-25856,238.427480916031,9727,-148.503816793893,-31739,-46225.0051282051,12553,9196.336996337,22536,16509.8901098901,38920,28512.8205128205,13832,10133.3333333333,5274.3515625,7.97616466569245,56690,172.750680519605,48392,257.207461842849,3.88791208791209,
7515648,127235713.439941,1711760303433.69,12278,-706.409638554217,60679,-123.265060240964,5894,-46.3493975903614,-15617,367.389312977099,-24064,238.427480916031,5631,-85.969465648855,-27387,-39886.7076923077,20489,15010.2564102564,29960,21948.7179487179,62472,45767.032967033,13064,9570.69597069597,5274.3515625,6.37692997391146,51058,144.421059829358,48392,257.207461842849,3.88791208791209,
7548416,127236713.439941,1711760304433.69,12278,-700.240963855422,60167,-123.265060240964,5894,-46.3493975903614,-15617,340.030534351145,-22272,238.427480916031,7423,-113.328244274809,-28155,-41005.2307692308,22025,16135.5311355311,37384,27387.5457875458,6408,4694.50549450549,13064,9570.69597069597,5274.36328125,7.19905384009071,53874,158.617113885824,48392,257.207461842849,3.88791208791209,
7613952,127750713.439941,1711760818433.69,12278,-697.156626506024,59911,-123.265060240964,5638,-43.2650602409639,-15617,394.748091603053,-25856,238.427480916031,12031,-183.679389312977,-27643,-40259.5487179487,23561,17260.8058608059,44552,32638.8278388278,16392,12008.7912087912,12552,9195.60439560439,5274.36328125,6.45340059513788,51314,145.714599396085,48136,284.671532846715,3.51282051282051,
7646720,127751713.439941,1711760819433.69,12278,-697.156626506024,59911,-123.265060240964,5382,-40.1807228915663,-15617,398.656488549618,-26112,238.427480916031,9983,-152.412213740458,31749,46239.5692307692,7433,5445.42124542124,30473,22324.5421245421,58888,43141.3919413919,12552,9195.60439560439,5274.359375,7.62890879817558,55410,166.333195830808,48392,257.207461842849,3.88791208791209,
7679488,127752713.439941,1711760820433.69,12278,-697.156626506024,59911,-123.265060240964,5126,-37.0963855421687,-15617,390.839694656489,-25600,238.427480916031,11007,-168.045801526718,-27131,-39513.8666666667,46601,34139.9267399267,28680,21010.989010989,62472,45767.032967033,12808,9383.15018315018,5274.359375,7.12606804780425,53618,157.329363533413,48136,284.671532846715,3.51282051282051,
7712256,127753713.439941,1711760821433.69,12534,-706.409638554217,60679,-126.349397590361,5382,-40.1807228915663,-15617,359.572519083969,-23552,238.427480916031,12543,-191.496183206107,-30459,-44360.8,27657,20261.5384615385,46856,34326.7399267399,37896,27762.6373626374,12808,9383.15018315018,5274.359375,7.19903960011667,53874,158.617113885824,48392,257.207461842849,3.88791208791209,
7745024,127754713.439941,1711760822433.69,12534,-700.240963855422,60167,-126.349397590361,5126,-37.0963855421687,-15617,402.564885496183,-26368,238.427480916031,10751,-164.137404580153,-31739,-46225.0051282051,15625,11446.8864468864,30216,22136.2637362637,62472,45767.032967033,12040,8820.51282051282,5274.3515625,7.69915447247408,55666,167.617565290017,48392,257.207461842849,3.88791208791209,
7777792,127755713.439941,1711760823433.69,12022,-700.240963855422,60167,-120.180722891566,5126,-37.0963855421687,-15617,336.12213740458,-22016,238.427480916031,6399,-97.6946564885496,-27899,-40632.3897435897,21257,15572.8937728938,36872,27012.4542124542,3592,2631.50183150183,11528,8445.42124542124,5274.3515625,8.04437204090935,56946,174.032910837902,48392,257.207461842849,3.88791208791209,
7810560,127756713.439941,1711760824433.69,12534,-706.409638554217,60679,-126.349397590361,6150,-49.433734939759,-15617,320.488549618321,-20992,238.427480916031,2303,-35.1603053435114,-28923,-42123.7538461538,21513,15760.4395604396,38152,27950.1831501831,60424,44266.6666666667,12039,8819.78021978022,5274.3515625,5.91178467926557,49522,136.645576685202,48392,257.207461842849,3.88791208791209,
7843328,127757713.439941,1711760825433.69,12278,-700.240963855422,60167,-123.265060240964,5894,-46.3493975903614,-15617,320.488549618321,-20992,238.427480916031,4351,-66.4274809160305,-31227,-45479.3230769231,14857,10884.2490842491,24328,17822.7106227106,37384,27387.5457875458,11272,8257.87545787546,5274.3515625,7.19901112016862,53874,158.617113885824,48392,257.207461842849,3.88791208791209,
7876096,127758713.439941,1711760826433.69,11766,-700.240963855422,60167,-117.096385542169,5638,-43.2650602409639,-15617,367.389312977099,-24064,238.427480916031,3839,-58.6106870229008,-27387,-39886.7076923077,21513,15760.4395604396,33032,24199.2673992674,51976,38077.6556776557,11527,8444.68864468864,5274.3515625,7.55820633793298,55154,165.048372449227,48392,257.207461842849,3.88791208791209,
7908864,127759713.439941,1711760827433.69,12534,-697.156626506024,59911,-126.349397590361,5638,-43.2650602409639,-15617,394.748091603053,-25856,238.427480916031,11007,-168.045801526718,-27899,-40632.3897435897,24073,17635.8974358974,42504,31138.4615384615,4360,3194.13919413919,10504,7695.23809523809,5274.3515625,7.19901112016862,53874,158.617113885824,48392,257.207461842849,3.88791208791209,
7941632,127760713.439941,1711760828433.69,12278,-700.240963855422,60167,-123.265060240964,5382,-40.1807228915663,-15617,449.465648854962,-29440,238.427480916031,14591,-222.763358778626,30469,44375.3641025641,7177,5257.87545787546,27913,20449.0842490842,48392,35452.0146520147,9992,7320.14652014652,5274.3515625,7.48713790053844,54898,163.763085894523,48392,257.207461842849,3.88791208791209,
7974400,127761713.439941,1711760829433.69,12022,-700.240963855422,60167,-120.180722891566,4870,-34.0120481927711,-15617,363.480916030534,-23808,238.427480916031,12287,-187.587786259542,-30971,-45106.482051282,38153,27950.9157509157,6664,4882.05128205128,61704,45204.3956043956,10247,7506.95970695971,5274.3515625,7.55820633793298,55154,165.048372449227,48392,257.207461842849,3.88791208791209,
8007168,127762713.439941,1711760830433.69,12278,-703.325301204819,60423,-123.265060240964,5126,-37.0963855421687,-15617,398.656488549618,-26112,238.427480916031,14335,-218.854961832061,-31739,-46225.0051282051,19465,14260.0732600733,20744,15197.0695970696,27400,20073.2600732601,10248,7507.69230769231,5274.3515625,6.22311592034738,50546,141.832008109172,48392,257.207461842849,3.88791208791209,
8039936,127763713.439941,1711760831433.69,12534,-697.156626506024,59911,-126.349397590361,5638,-43.2650602409639,-15617,312.671755725191,-20480,238.427480916031,10751,-164.137404580153,-27899,-40632.3897435897,23561,17260.8058608059,35592,26074.7252747253,58632,42953.8461538461,9991,7319.41391941392,5274.35546875,6.90495850613758,52850,153.462921415624,48136,284.671532846715,3.51282051282051,
8072704,127764713.439941,1711760832433.69,12278,-697.156626506024,59911,-123.265060240964,6150,-49.433734939759,-15617,312.671755725191,-20480,238.427480916031,6143,-93.7862595419847,-27899,-40632.3897435897,25353,18573.6263736264,47112,34514.2857142857,19464,14259.3406593407,9480,6945.05494505494,5274.35546875,6.68068982706821,52082,149.591446711184,48392,257.207461842849,3.88791208791209,
8105472,127765713.439941,1711760833433.69,12534,-697.156626506024,59911,-126.349397590361,5894,-46.3493975903614,-15617,351.75572519084,-23040,238.427480916031,4351,-66.4274809160305,-27643,-40259.5487179487,24585,18010.989010989,48648,35639.5604395604,31752,23261.5384615385,8456,6194.87179487179,5274.35546875,6.68068982706821,52082,149.591446711184,48136,284.671532846715,3.51282051282051,
8171008,128279713.439941,1711761347433.69,12278,-703.325301204819,60423,-123.265060240964,5382,-40.1807228915663,-15617,449.465648854962,-29440,238.427480916031,3071,-46.8854961832061,30469,44375.3641025641,7945,5820.51282051282,36617,26825.641025641,2568,1881.31868131868,8968,6569.96336996337,5274.3515625,7.90753456173489,56434,171.468039018049,48136,284.671532846715,3.51282051282051,
